"Time (s)","Linear Acceleration x (m/s^2)","Linear Acceleration y (m/s^2)","Linear Acceleration z (m/s^2)","Absolute acceleration (m/s^2)"
3.513069500E-2,2.489805222E-3,-1.356311142E-3,-3.356647491E-2,3.368600523E-2
4.514054100E-2,2.875971794E-2,1.072672009E-2,-9.582138062E-2,1.006176967E-1
5.515038700E-2,4.066818953E-2,-8.321054280E-3,-7.906627655E-2,8.930071484E-2
6.512946400E-2,3.681778908E-2,1.126114279E-2,-8.698463440E-2,9.512460014E-2
7.513931000E-2,4.217225313E-2,4.009015858E-3,-6.340980530E-2,7.625860312E-2
8.514915600E-2,3.407967091E-2,4.062429070E-3,-7.808685303E-2,8.529644726E-2
9.512831000E-2,3.647917509E-2,-7.325187325E-4,-9.031772614E-2,9.740923187E-2
1.051380790E-1,5.168589950E-2,8.841089904E-3,-7.377147675E-2,9.050871703E-2
1.151479260E-1,4.011240602E-2,1.381136477E-3,-6.717014313E-2,7.824794427E-2
1.251270790E-1,3.334146738E-2,-3.476724029E-3,-7.445716858E-2,8.165544079E-2
1.351368490E-1,3.711512685E-2,6.150320172E-3,-8.648109436E-2,9.430980204E-2
1.451464640E-1,2.256852388E-2,1.475647092E-3,-7.691478729E-2,8.017106903E-2
1.551258490E-1,8.227080107E-3,1.346085966E-2,-7.028961182E-2,7.203824761E-2
1.651356180E-1,2.659857273E-3,-2.005796134E-2,-6.541824341E-2,6.847585870E-2
1.751454640E-1,-1.776576042E-3,-9.732991457E-4,-6.288242340E-2,6.291504356E-2
1.851246180E-1,-1.284116507E-2,1.420900226E-3,-5.313491821E-2,5.468303221E-2
1.951343870E-1,-2.100169659E-2,-1.061583310E-2,-7.687759399E-2,8.039857978E-2
2.051442330E-1,-1.416850090E-2,6.077289581E-3,-4.791450500E-2,5.033368312E-2
2.151233870E-1,-2.866417170E-2,-1.553975046E-2,-5.963897705E-2,6.797003874E-2
2.251332330E-1,-3.818535805E-2,-3.634914756E-3,-5.219650269E-2,6.477506516E-2
2.351430030E-1,-5.469846725E-2,-1.246878505E-2,-3.963375092E-2,6.868935239E-2
2.451221570E-1,-6.402450800E-2,-2.955235541E-3,-2.977848053E-2,7.067268881E-2
2.551319260E-1,-4.566514492E-2,8.447647095E-3,-2.182769775E-2,5.131390251E-2
2.651417720E-1,-6.780260801E-2,-1.070937514E-2,-2.158927917E-2,7.195819164E-2
2.751513870E-1,-4.783546925E-2,1.041373610E-2,-2.535247803E-2,5.513099092E-2
2.851306950E-1,-5.447441339E-2,-1.504376531E-3,-1.799774170E-2,5.739027417E-2
2.951405410E-1,-3.164374828E-2,-5.364105105E-3,-1.257038116E-2,3.446904280E-2
3.051503880E-1,-3.840798140E-2,-5.829408765E-4,-2.691078186E-2,4.690099184E-2
3.151294640E-1,-4.072546959E-2,1.184049994E-2,-4.454612732E-3,4.264510390E-2
3.251393110E-1,8.175909519E-3,2.196542919E-3,-3.326988220E-2,3.433009407E-2
3.351491570E-1,1.320654154E-2,6.973899901E-3,-4.537391663E-2,4.776861239E-2
3.451283110E-1,2.265632153E-2,4.628621042E-3,-2.398109436E-2,3.331404996E-2
3.551380800E-1,4.133743048E-2,-9.624496102E-3,-3.134059906E-2,5.276028083E-2
3.651479260E-1,2.398043871E-2,2.342872322E-3,-4.109859467E-2,4.764079108E-2
3.751270800E-1,2.817708254E-2,9.644918144E-3,-5.804061890E-2,6.523561810E-2
3.851368490E-1,3.488272429E-2,2.578340471E-3,-3.666782379E-2,5.067525624E-2
3.951464650E-1,3.704112768E-2,2.746768296E-3,-4.400920868E-2,5.758819605E-2
4.051258490E-1,4.907816648E-2,5.058549345E-3,-5.851268768E-2,7.653750693E-2
4.151356190E-1,5.898392200E-2,9.937889874E-3,-3.708934784E-2,7.038099483E-2
4.251454650E-1,3.590005636E-2,-4.330612719E-3,-5.154609680E-2,6.296481834E-2
4.351246190E-1,4.445493221E-2,-4.294045269E-3,-5.400085449E-2,7.007690139E-2
4.451343880E-1,4.863762856E-2,-6.701871753E-3,-4.924869537E-2,6.954112447E-2
4.551442340E-1,4.834419489E-2,1.488561928E-2,-4.447746277E-2,6.735716395E-2
4.651233880E-1,3.195101023E-2,-6.672717631E-3,-5.403232574E-2,6.312594111E-2
4.751332340E-1,3.027743101E-2,-1.896351576E-3,-5.638408661E-2,6.402721453E-2
4.851430030E-1,4.808479548E-2,7.658801973E-3,-4.435062408E-2,6.586184525E-2
4.951221570E-1,4.456341267E-2,-1.377309859E-2,-3.948879242E-2,6.111432500E-2
5.051320030E-1,1.011770964E-2,3.095902503E-3,-2.503776550E-2,2.718165488E-2
5.151417730E-1,9.390175343E-3,2.228824049E-2,-2.254486084E-2,3.306375368E-2
5.251513880E-1,2.063775063E-2,7.942274213E-3,-2.005100250E-2,2.985027926E-2
5.351306960E-1,1.280885935E-2,3.176689148E-3,-2.952289581E-2,3.233820664E-2
5.451405420E-1,4.898905754E-3,-1.523286104E-3,-2.224254608E-2,2.282653137E-2
5.551503880E-1,6.232559681E-3,1.286214590E-2,-2.216243744E-2,2.637144726E-2
5.651294650E-1,-9.496033192E-3,9.173899889E-4,-1.731204987E-2,1.976672257E-2
5.751393110E-1,-4.007875919E-3,-8.557140827E-3,-5.557823181E-2,5.637577121E-2
5.851491570E-1,5.940496922E-3,1.069525629E-2,-1.964282990E-2,2.314127864E-2
5.951283110E-1,1.313138008E-2,5.939178169E-3,-3.640270233E-2,3.915180350E-2
6.051380810E-1,1.260602474E-2,1.069702208E-2,-3.164577484E-2,3.570424634E-2
6.151479270E-1,1.184707880E-2,3.551572561E-3,-1.972103119E-2,2.327844529E-2
6.251270810E-1,1.791048050E-2,5.980074406E-3,-3.176021576E-2,3.694939657E-2
6.351368500E-1,3.345215321E-2,-1.061371714E-2,-1.986408234E-2,4.032715354E-2
6.451464650E-1,1.288169622E-2,6.180658937E-3,-3.431510925E-2,3.717075955E-2
6.551258500E-1,2.109396458E-2,1.829825342E-2,-2.960968018E-2,4.070030196E-2
6.651356190E-1,1.501142979E-2,3.969267011E-3,-2.968883514E-2,3.350410478E-2
6.751454650E-1,2.102100849E-2,8.789166808E-3,-3.694152832E-2,4.340286587E-2
6.851246190E-1,2.002525330E-2,-8.078441024E-4,-4.418182373E-2,4.851491451E-2
6.951343880E-1,1.448559761E-2,4.016011953E-3,-3.943920135E-2,4.220677071E-2
7.051442350E-1,5.229157209E-2,8.769191802E-3,-3.228664398E-2,6.207845533E-2
7.151233880E-1,3.274047375E-2,8.791357279E-3,-3.709888458E-2,5.025488853E-2
7.251332350E-1,3.483414650E-2,8.747585118E-3,-4.190444946E-2,5.518986223E-2
7.351430040E-1,-1.225531101E-3,-8.027255535E-4,-3.473091125E-2,3.476179644E-2
7.451221580E-1,9.717881680E-2,-1.274581999E-2,-9.457206726E-2,1.361985839E-1
7.551319270E-1,7.586187124E-2,1.365505904E-2,-9.216403961E-2,1.201486344E-1
7.651417730E-1,5.373817682E-2,2.558720857E-2,-1.065254211E-2,6.046464706E-2
7.751513890E-1,3.541463614E-2,6.383173168E-3,-7.749652863E-2,8.544386052E-2
7.851307730E-1,2.301913500E-2,6.391815841E-3,-1.498603821E-2,2.820136924E-2
7.951405430E-1,-2.226316929E-2,2.321305871E-2,-3.144454956E-2,4.498060136E-2
8.051503890E-1,-4.109871387E-2,1.125588268E-2,-7.190704346E-3,4.321464342E-2
8.151294660E-1,-6.036937237E-2,6.497688591E-3,-6.902694702E-3,6.110915047E-2
8.251393120E-1,-6.415706873E-2,-5.552098155E-3,1.006793976E-2,6.517912759E-2
8.351491580E-1,-8.139491081E-2,1.604154706E-2,7.793426514E-3,8.332586774E-2
8.451283120E-1,-6.412947178E-2,-5.411222577E-3,1.261138916E-2,6.558138163E-2
8.551380810E-1,-3.391277790E-2,-7.820069790E-3,-2.575302124E-2,4.329489692E-2
8.651479270E-1,-7.197260857E-4,6.586790085E-3,-9.161949158E-3,1.130686171E-2
8.751270810E-1,-6.646513939E-3,9.014427662E-3,-1.416969299E-2,1.806145767E-2
8.851368500E-1,-6.099760532E-3,9.162992239E-3,-4.855155945E-3,1.203079567E-2
8.951464660E-1,1.049315929E-2,-9.830839932E-3,-1.081104279E-1,1.090624427E-1
9.051258500E-1,1.747632027E-2,4.579566419E-3,-1.264476776E-2,2.205185594E-2
9.151356200E-1,5.116105080E-2,1.192724705E-2,-1.015090942E-1,1.142970190E-1
9.251454660E-1,9.167069197E-2,-2.265140414E-3,-5.392360687E-2,1.063785787E-1
9.351246200E-1,7.377970219E-2,7.241308689E-3,-1.403226852E-1,1.587020384E-1
9.451343890E-1,7.194459438E-2,-7.139295340E-3,1.758670807E-2,7.440622622E-2
9.551442350E-1,4.018050432E-2,4.935517907E-3,-9.019088745E-2,9.885964012E-2
9.651233890E-1,4.508227110E-2,7.253110409E-3,-3.990554810E-2,6.064215981E-2
9.751332350E-1,4.844886065E-2,-4.677198827E-3,-8.533859253E-2,9.824379706E-2
9.851430050E-1,1.896089315E-2,7.212176919E-3,-1.820373535E-2,2.725631937E-2
9.951221580E-1,-1.457828283E-2,7.187165320E-3,-1.087951660E-2,1.955877187E-2
1.005131928E0,-3.831017017E-2,1.913554966E-2,-5.860900879E-2,7.258687423E-2
1.015141774E0,-3.605258465E-2,1.684539020E-2,1.334953308E-2,4.197339710E-2
1.025151389E0,-3.880304098E-2,9.655602276E-3,-2.004718781E-2,4.473026250E-2
1.035130697E0,-4.509049654E-2,4.863619804E-3,3.028488159E-2,5.453422530E-2
1.045140543E0,-2.125304937E-2,2.505980432E-3,-3.436470032E-2,4.048338762E-2
1.055150389E0,1.442909241E-3,7.272891700E-3,1.583862305E-2,1.748825094E-2
1.065129466E0,4.267770052E-2,1.684254408E-2,-8.004093170E-2,9.225837718E-2
1.075139312E0,1.053247452E-1,7.298357785E-3,-6.100654602E-2,1.219359120E-1
1.085149159E0,1.525598764E-1,-9.438827634E-3,-1.209001541E-1,1.948857476E-1
1.095128312E0,1.801607311E-1,9.648256004E-3,-8.969974518E-2,2.014870273E-1
1.105138082E0,2.127363086E-1,-1.667228341E-2,-1.301717758E-1,2.499587831E-1
1.115147928E0,2.072253525E-1,7.202640176E-3,-7.710933685E-2,2.212240371E-1
1.125127082E0,1.429732740E-1,9.382702410E-3,-1.794490814E-1,2.296331096E-1
1.135136851E0,1.439511478E-1,-2.187682688E-2,7.035636902E-2,1.617113081E-1
1.145146697E0,-1.181889176E-1,-5.412176251E-3,-1.947307587E-2,1.199045979E-1
1.155125851E0,-4.805040359E-2,2.077141404E-2,1.326704025E-1,1.426244321E-1
1.165135620E0,3.250980377E-2,1.114636660E-2,4.624366760E-3,3.467727783E-2
1.175145467E0,3.409791291E-1,1.086759716E-1,-2.649431229E-1,4.452775445E-1
1.185124620E0,3.285503983E-1,2.885848284E-3,1.693973541E-1,3.696608661E-1
1.195134390E0,5.329513550E-1,-1.891752332E-2,-2.961893082E-1,6.100189552E-1
1.205144236E0,5.862634182E-1,2.138420194E-2,-3.853225708E-2,5.879173534E-1
1.215123390E0,6.013597846E-1,4.062777013E-2,-1.666212082E-1,6.253373756E-1
1.225133236E0,4.712780118E-1,1.427748054E-2,-1.808614731E-1,5.049927557E-1
1.235143005E0,-2.954792976E-2,1.441229880E-2,3.168010712E-2,4.565548923E-2
1.245122159E0,-1.857724190E-1,-3.090929985E-2,-2.909660339E-2,1.905607221E-1
1.255131928E0,-3.586843014E-1,-8.811187744E-2,-3.298006058E-1,4.951631757E-1
1.265141774E0,-4.926493168E-1,-1.475626230E-1,-4.370136261E-1,6.748770158E-1
1.275151390E0,-4.720039368E-1,9.017740935E-2,1.216856956E0,1.308304450E0
1.285130698E0,-7.765648365E-1,1.767547727E-1,1.171469688E0,1.416557950E0
1.295140544E0,-2.937948704E-1,-4.856891185E-2,-9.541807175E-1,9.995675098E-1
1.305150390E0,-3.933241367E-1,-9.567074478E-2,-2.211618423E-1,4.612692581E-1
1.315129467E0,1.201697588E-1,-1.878618598E-1,9.193878174E-1,9.460479946E-1
1.325139313E0,-3.558691740E-1,2.351477742E-4,-3.731918335E-1,5.156695346E-1
1.335149159E0,-7.441246510E-1,7.422648370E-3,-7.244768143E-1,1.038577511E0
1.345128313E0,-8.340169191E-1,1.056992859E-1,2.181959152E-1,8.685424675E-1
1.355138082E0,-7.383227348E-1,1.997166127E-2,-2.164840698E-4,7.385928343E-1
1.365147929E0,-1.240455389E0,4.905575514E-2,-9.686079025E-1,1.574591156E0
1.375127082E0,-1.092938900E0,-5.625150353E-2,7.693843842E-1,1.337771281E0
1.385136852E0,-8.829667568E-1,-1.073939800E-1,1.103931427E0,1.417684152E0
1.395146467E0,-9.584608078E-1,9.042086452E-2,-1.780974865E0,2.024523283E0
1.405125852E0,-1.360430956E0,3.127778322E-2,-7.807397842E-1,1.568854772E0
1.415135621E0,-1.165797949E0,-1.516140997E-1,7.781505585E-2,1.178187963E0
1.425145467E0,-7.638478279E-1,-8.735915273E-2,6.599225998E-1,1.013209240E0
1.435124621E0,2.266163826E-1,-1.453859359E-2,4.257868767E0,4.263919886E0
1.445134390E0,3.922033310E-1,-8.070735633E-2,1.800270081E0,1.844263943E0
1.455144236E0,-7.393140793E-1,-1.838006973E-1,8.984441757E-1,1.177951587E0
1.465123390E0,-1.393208504E0,-2.061766982E-1,2.982301712E-1,1.439611059E0
1.475133236E0,-1.330123663E0,-2.002933323E-1,-8.693552017E-1,1.601600713E0
1.485143006E0,-1.408343315E0,-1.751591116E-1,-1.737298965E-1,1.429787986E0
1.495122160E0,-1.250715733E0,-2.281690538E-1,-1.834001541E-1,1.284518033E0
1.505131929E0,-1.093347311E0,-2.206766307E-1,-1.805763245E-1,1.129917841E0
1.515141775E0,-1.113610506E0,-1.667284220E-1,-5.672168732E-2,1.127450254E0
1.525151390E0,-1.157364368E0,-4.677639902E-2,-1.289720535E-1,1.165467333E0
1.535130698E0,-1.184198618E0,3.032290936E-2,-2.584438324E-1,1.212451673E0
1.545140544E0,-1.053476572E0,1.147756577E-1,-2.337360382E-1,1.085181494E0
1.555150391E0,-1.103999853E0,1.228377074E-1,-2.218122482E-1,1.132742447E0
1.565129467E0,-1.144292355E0,1.524832398E-1,-1.671056747E-1,1.166439213E0
1.575139314E0,-1.221934795E0,1.191245019E-1,-6.891822815E-2,1.229660528E0
1.585149160E0,-1.378053188E0,1.372577995E-1,-2.544784546E-2,1.385105731E0
1.595128314E0,-1.389238358E0,1.151997745E-1,-7.802391052E-2,1.396188359E0
1.605138083E0,-1.319606781E0,1.120515615E-1,-2.119207382E-1,1.341203940E0
1.615147929E0,-1.413062096E0,9.391456842E-2,-2.161703110E-1,1.432582994E0
1.625127083E0,-1.348412514E0,8.420184255E-3,-1.383352280E-1,1.355516080E0
1.635136852E0,-1.031212330E0,8.762109280E-2,4.018497467E-2,1.035708046E0
1.645146468E0,-1.278968811E0,-8.787089586E-2,-5.615901947E-2,1.283213291E0
1.655125852E0,-1.001340866E0,-8.658109605E-2,-1.983442307E-1,1.024460956E0
1.665135622E0,-5.296630859E-1,-9.924799204E-2,-9.794235229E-2,5.477096429E-1
1.675145468E0,-2.525987625E-1,-4.257594049E-2,-2.729539871E-1,3.743297004E-1
1.685124622E0,1.790904999E-2,1.184576750E-2,-4.950246811E-1,4.954901524E-1
1.695134391E0,1.740198135E-1,2.912473679E-2,-5.216441154E-1,5.506757022E-1
1.705144237E0,1.848883629E-1,4.345953465E-2,-6.562004089E-1,6.831335262E-1
1.715123391E0,1.251511574E-1,1.133596897E-2,-6.652607918E-1,6.770252857E-1
1.725133237E0,1.879076958E-1,-4.893438518E-2,-6.065211296E-1,6.368451592E-1
1.735143006E0,2.925691605E-1,-5.421330035E-2,-5.151858330E-1,5.949388524E-1
1.745122160E0,5.328416824E-1,-2.034928203E-1,-4.719138145E-1,7.402919929E-1
1.755131929E0,5.469608307E-1,-3.125686049E-1,-2.519841194E-1,6.784992849E-1
1.765141776E0,4.451169968E-1,-3.546991050E-1,-1.336874962E-1,5.846477081E-1
1.775120929E0,3.337826729E-1,-3.209314942E-1,-4.863691330E-2,4.655893534E-1
1.785130699E0,2.744579315E-1,-2.025744021E-1,-7.414054871E-2,3.490850405E-1
1.795140545E0,2.542643547E-1,-1.104953140E-1,-1.440739632E-1,3.124370070E-1
1.805150391E0,2.540836334E-1,-9.265124798E-2,-1.532526016E-1,3.108522260E-1
1.815129468E0,2.141919136E-1,-1.191899478E-1,-4.416513443E-2,2.490682208E-1
1.825139314E0,1.772699356E-1,-1.284086406E-1,-1.169185638E-1,2.481599477E-1
1.835149160E0,1.517200470E-1,-9.898811579E-2,-1.501893997E-1,2.353178181E-1
1.845128314E0,1.808004379E-1,-3.518831730E-2,-1.895279884E-1,2.642874844E-1
1.855138084E0,1.934585571E-1,5.731198192E-2,-3.320684433E-1,3.885618710E-1
1.865147930E0,1.321749687E-1,8.294969797E-2,-3.651871681E-1,3.971303848E-1
1.875127084E0,1.529035568E-1,1.306642592E-1,-4.421615601E-1,4.857566176E-1
1.885136853E0,-1.574287415E-1,3.563933671E-1,1.010489464E-1,4.025058140E-1
1.895146468E0,-9.705467224E-1,2.078172863E-1,-9.619603157E-1,1.382214388E0
1.905125853E0,-3.885583878E-1,2.469168603E-1,-4.747920036E-1,6.613418203E-1
1.915135622E0,-1.971502304E-1,2.317961454E-1,-7.547683716E-1,8.138015490E-1
1.925145468E0,-1.075224876E-1,1.915636957E-1,-6.041336060E-1,6.428336867E-1
1.935124622E0,-6.532192230E-3,2.070018947E-1,-7.143545151E-1,7.437706818E-1
1.945134391E0,1.252737045E-1,1.592428386E-1,-7.858576775E-1,8.115565735E-1
1.955144238E0,2.717404366E-1,6.242260337E-2,-6.981973648E-1,7.518104858E-1
1.965123391E0,5.165328979E-1,4.008510709E-2,-9.241943359E-1,1.059503762E0
1.975133238E0,6.077384949E-1,-8.895714581E-2,-7.886075974E-1,9.995806093E-1
1.985143007E0,6.371440887E-1,-7.911145687E-3,-9.000477791E-1,1.102769777E0
1.995122161E0,5.081295967E-1,-1.176047325E-2,-6.014719009E-1,7.874658363E-1
2.005131930E0,4.748511314E-1,1.836711168E-2,-5.986347198E-1,7.643196161E-1
2.015141776E0,5.430026054E-1,1.491856575E-2,-5.678181648E-1,7.858065038E-1
2.025120930E0,5.792217255E-1,-4.902750254E-3,-5.775871277E-1,8.180028938E-1
2.035130776E0,5.480937958E-1,-3.849802911E-2,-4.948344231E-1,7.394254617E-1
2.045140546E0,5.137624741E-1,-5.616180599E-2,-4.104752541E-1,6.599969412E-1
2.055150392E0,5.199666023E-1,-7.510998845E-2,-4.150524139E-1,6.695336319E-1
2.065129469E0,5.289173126E-1,-1.022617519E-1,-3.858647346E-1,6.626481592E-1
2.075139315E0,5.043573380E-1,-7.868234813E-2,-4.540710449E-1,6.831893955E-1
2.085149161E0,5.625829697E-1,-6.699462235E-2,-4.883160591E-1,7.479575194E-1
2.095128315E0,4.344420433E-1,2.359750867E-2,-4.755167961E-1,6.445253717E-1
2.105138084E0,3.394036293E-1,1.146365851E-1,-4.119687080E-1,5.459437578E-1
2.115147930E0,2.564353943E-1,1.982961446E-1,-4.668388367E-1,5.683475801E-1
2.125127084E0,8.461380005E-2,3.262994885E-1,-3.928651810E-1,5.176619571E-1
2.135136853E0,6.262493134E-2,3.511406779E-1,-2.816972733E-1,4.545052381E-1
2.145146469E0,5.943393707E-2,3.676472008E-1,-1.794180870E-1,4.133856639E-1
2.155125853E0,8.423614502E-2,3.397189081E-1,-1.445569992E-1,3.786837607E-1
2.165135623E0,9.824848175E-2,2.791789174E-1,-1.346411705E-1,3.251490072E-1
2.175145469E0,1.152954102E-1,2.442335635E-1,-1.569123268E-1,3.123532351E-1
2.185124623E0,4.758167267E-2,2.200569361E-1,-1.671957970E-1,2.804344937E-1
2.195134392E0,-2.225399017E-2,2.248712778E-1,-1.581864357E-1,2.758356034E-1
2.205144238E0,7.290940285E-1,1.330495328E-1,3.393840790E-2,7.419111106E-1
2.215123392E0,-1.742105484E-1,1.790364981E-1,-1.013450623E-1,2.695815358E-1
2.225133238E0,-6.624450684E-1,1.075000167E-1,-6.543421745E-1,9.373117963E-1
2.235143008E0,-1.652145386E-1,1.768417060E-1,-2.347979546E-1,3.371926930E-1
2.245122161E0,-1.947488785E-1,1.746432930E-1,-3.858718872E-1,4.661807791E-1
2.255131931E0,-2.335109711E-1,2.317030877E-1,-3.561763763E-1,4.848456512E-1
2.265141777E0,-2.230443954E-1,2.495213747E-1,-3.664207458E-1,4.962598934E-1
2.275120931E0,-1.789293289E-1,2.494099587E-1,-3.829193115E-1,4.907629075E-1
2.285130777E0,-1.744489670E-1,1.359793693E-1,-3.051643372E-1,3.768926951E-1
2.295140546E0,-1.810607910E-1,6.986336410E-2,-2.379560471E-1,3.070618505E-1
2.305150392E0,-9.351253510E-2,3.028202057E-2,-2.265081406E-1,2.469160439E-1
2.315129469E0,1.670169830E-2,1.106637716E-2,-2.531528473E-1,2.539444339E-1
2.325139315E0,4.902458191E-2,1.279574633E-2,-2.890262604E-1,2.934336721E-1
2.335149162E0,-4.005336761E-2,9.273636341E-2,-2.295937538E-1,2.508338038E-1
2.345128315E0,-9.692668915E-2,8.887714148E-2,-2.274379730E-1,2.627203093E-1
2.355138085E0,-2.829323769E0,7.652542591E-1,3.397109032E0,4.486762401E0
2.365147931E0,7.851532459E0,-2.127046585E0,-1.058092117E1,1.334641457E1
2.375127085E0,-1.284525871E0,-7.271927595E-2,5.346819878E0,5.499434299E0
2.385136854E0,7.154703140E-1,-6.019998193E-1,-1.468709230E0,1.741094011E0
2.395146469E0,-6.674547195E-1,-6.101582944E-2,4.502792358E-1,8.074466696E-1
2.405125854E0,-1.063444138E0,6.621542573E-1,3.409705162E-1,1.298315288E0
2.415135623E0,-4.917020798E-1,2.355308235E-1,-1.680085659E-1,5.705020441E-1
2.425145469E0,-2.617206573E-1,-4.349850118E-2,-1.113035679E-1,2.877121935E-1
2.435124623E0,-2.473468781E-1,-3.134153783E-1,-4.774584770E-1,6.223955934E-1
2.445134393E0,-4.038953781E-1,-1.982152462E-1,-4.636356831E-1,6.460486103E-1
2.455144239E0,-2.908487320E-1,-2.015121728E-1,-7.282061577E-1,8.096198792E-1
2.465123393E0,-3.336219788E-1,-2.061458826E-1,-5.328052044E-1,6.615747391E-1
2.475133239E0,-2.869501114E-1,-2.020641863E-1,-5.236632824E-1,6.303915729E-1
2.485143008E0,-2.621955872E-1,-1.638309658E-1,-3.839128017E-1,4.929261107E-1
2.495122162E0,-2.628574371E-1,-2.172358185E-1,-1.101524830E-1,3.583559719E-1
2.505131931E0,-2.030391693E-1,-1.115629375E-1,-5.030980110E-1,5.538761612E-1
2.515141777E0,-1.987743378E-1,1.492496580E-2,-4.929475784E-1,5.317248415E-1
2.525120931E0,-1.581459045E-1,-3.695636988E-4,-5.511767864E-1,5.734161783E-1
2.535130701E0,-1.910610199E-1,-3.722776473E-2,-6.074774265E-1,6.379020642E-1
2.545140547E0,-2.563610077E-1,-7.038658857E-2,-6.265869141E-1,6.806514519E-1
2.555150393E0,-2.645778656E-1,-9.977628291E-2,-6.030728817E-1,6.660733100E-1
2.565129470E0,-2.924451828E-1,-8.401903510E-2,-6.089568138E-1,6.807435525E-1
2.575139316E0,-2.393140793E-1,-5.196494609E-2,-6.304085255E-1,6.763035510E-1
2.585149162E0,-1.744852066E-1,9.994592518E-3,-6.223964691E-1,6.464691361E-1
2.595128316E0,-1.147851944E-1,-2.276711166E-4,-7.024264336E-1,7.117433437E-1
2.605138085E0,-8.278179169E-2,1.063005626E-1,-2.564244270E-1,2.896655337E-1
2.615147931E0,5.702400208E-2,9.619060904E-2,-2.466776371E-1,2.708398544E-1
2.625127085E0,-4.335117340E-2,1.509067416E-2,-4.965789318E-1,4.986959877E-1
2.635136855E0,-8.858108521E-2,4.502294585E-2,-4.810357094E-1,4.911914372E-1
2.645146470E0,-8.334159851E-2,4.231916741E-2,-7.261439562E-1,7.321350825E-1
2.655125855E0,-1.221542358E-1,2.825418487E-2,-6.570266485E-1,6.688826303E-1
2.665135624E0,-1.376085281E-1,-1.376483589E-2,-5.643692017E-1,5.810664106E-1
2.675145470E0,-1.155195236E-1,1.870674640E-2,-6.501104832E-1,6.605591140E-1
2.685124624E0,-5.362129211E-2,6.124328822E-3,-5.007978678E-1,5.036975826E-1
2.695134393E0,-2.389411926E-1,9.388583153E-2,-5.318880081E-1,5.906033323E-1
2.705144239E0,-4.548282623E-1,-2.638548613E-1,-9.867956638E-1,1.118147494E0
2.715123393E0,-1.806240082E-1,-1.841749549E-1,-4.636316299E-1,5.305654857E-1
2.725133239E0,-7.507228851E-2,-2.673471719E-2,-1.446323395E-1,1.651336042E-1
2.735143009E0,-3.754520416E-2,-4.693849757E-2,-5.110253096E-1,5.145480851E-1
2.745122163E0,-5.070114136E-2,6.642462313E-2,-4.226268530E-1,4.308088824E-1
2.755131932E0,-6.670188904E-2,-3.784618527E-2,-2.005728483E-1,2.147345879E-1
2.765141778E0,7.275676727E-2,1.579429209E-2,-2.382102013E-1,2.495738505E-1
2.775120932E0,1.016540527E-1,6.929609179E-2,-1.851198673E-1,2.222720406E-1
2.785130701E0,8.265304565E-2,2.274170145E-2,-2.061983347E-1,2.233080029E-1
2.795140547E0,4.697132111E-2,2.223696560E-2,-2.717816830E-1,2.767057478E-1
2.805150393E0,3.053951263E-2,1.505501941E-2,-3.644646406E-1,3.660516216E-1
2.815129470E0,9.303092957E-2,4.642865062E-2,-3.892167807E-1,4.028648356E-1
2.825139317E0,-1.293392181E-1,1.845270023E-2,-4.424685240E-1,4.613540183E-1
2.835149163E0,-7.409286499E-2,-1.743513346E-1,-2.348725796E-1,3.017503424E-1
2.845128317E0,5.778312683E-2,7.409487665E-2,-4.702916741E-1,4.795864878E-1
2.855138086E0,5.978679657E-2,8.241757751E-4,-4.491671026E-1,4.531293704E-1
2.865147932E0,3.755664825E-2,3.024630621E-2,-4.807079136E-1,4.831205223E-1
2.875127086E0,4.817008972E-2,1.613404602E-2,-5.121744871E-1,5.146876434E-1
2.885136855E0,-1.869773865E-2,1.319864765E-2,-5.894897580E-1,5.899338815E-1
2.895146471E0,-2.062606812E-1,4.287059233E-2,-7.863777876E-1,8.141077208E-1
2.905125855E0,3.998339176E0,3.131691515E-1,-2.660123348E0,4.812592577E0
2.915135625E0,-9.754972458E-1,3.161875606E-1,2.311786890E0,2.529017215E0
2.925145471E0,-1.291249275E0,-2.483553886E0,-1.234345436E0,3.059243902E0
2.935124625E0,-7.925701141E-1,-1.715968013E0,-4.235816956E0,4.638411246E0
2.945134394E0,8.666753769E-1,-1.513255954E0,-6.388670444E0,6.622399855E0
2.955144240E0,3.471431732E-1,2.000393867E-1,1.326440334E0,1.385629135E0
2.965123394E0,2.939835548E0,7.498877048E-1,-1.426280141E0,3.352497526E0
2.975133240E0,1.374186516E0,-5.694251508E-2,-4.123518467E0,4.346842024E0
2.985143009E0,-3.387833595E0,-1.794358015E0,-1.809866875E-1,3.837954317E0
2.995122163E0,-7.399559021E-3,-2.385712862E-1,3.259281397E0,3.268009522E0
3.005131932E0,-5.116462708E-3,8.466506004E-1,2.598205805E0,2.732675762E0
3.015141779E0,-1.559438705E-1,1.135358214E0,-1.147471428E0,1.621742101E0
3.025120932E0,5.958623886E-1,1.059195995E-1,1.011542678E0,1.178766108E0
3.035130702E0,6.079473495E-1,-9.631043673E-1,-4.602738857E0,4.741558287E0
3.045140548E0,-6.850233078E-1,9.344934821E-1,3.151404142E0,3.357660356E0
3.055150394E0,4.403553009E-1,-2.064914852E-1,-1.901342750E0,1.962563572E0
3.065129471E0,-2.851638794E-1,5.725245550E-2,5.235358477E-1,5.989040537E-1
3.075139317E0,-1.558952332E-1,-6.396707892E-2,-5.869973898E-1,6.107053680E-1
3.085149163E0,-1.032390594E-1,4.089000821E-2,-2.397819757E-1,2.642455147E-1
3.095128317E0,2.606868744E-2,-6.827296317E-2,-5.844944715E-1,5.890454662E-1
3.105138087E0,1.099128723E-1,-1.312326938E-1,-9.124357700E-1,9.283544010E-1
3.115147933E0,2.136516571E-2,-3.208089992E-2,-7.100485563E-1,7.110939507E-1
3.125127087E0,-1.352872849E-1,-2.541245520E-2,1.558089852E-1,2.079059456E-1
3.135136856E0,-6.977653503E-2,-2.238295227E-2,-8.607278466E-1,8.638415291E-1
3.145146471E0,2.799606323E-2,-1.306559145E-1,3.099286854E-1,3.375063520E-1
3.155125856E0,-4.916667938E-2,-3.044131771E-2,-2.319651544E-1,2.390645709E-1
3.165135625E0,-1.061344147E-2,1.839824319E-1,4.433072805E-1,4.800869977E-1
3.175145471E0,-6.303215027E-2,1.447219998E-1,4.382494092E-1,4.658111783E-1
3.185124625E0,-1.754951477E-2,4.040631652E-2,-1.768751442E-1,1.822785575E-1
3.195134394E0,-8.948326111E-2,5.631649494E-2,-7.548806071E-2,1.299124664E-1
3.205144241E0,-7.773399353E-2,2.894866653E-2,-1.456950009E-1,1.676533099E-1
3.215123394E0,-2.522468567E-2,3.648293763E-2,-1.122615337E-1,1.207060125E-1
3.225133241E0,-2.294540405E-2,8.149841800E-3,-9.229248762E-2,9.545058805E-2
3.235143010E0,-4.941272736E-2,6.069675088E-2,-3.687082529E-1,3.769237177E-1
3.245122164E0,-5.905437469E-2,1.022606436E-2,7.121172547E-2,9.307578314E-2
3.255131933E0,-4.013061523E-3,-2.630757727E-2,-3.661965430E-1,3.671622276E-1
3.265141779E0,-6.859397888E-2,-7.491773367E-2,-2.722270489E-1,2.905604359E-1
3.275120933E0,-9.006595612E-2,1.485058200E-2,-1.115548313E-1,1.441419322E-1
3.285130702E0,-1.328182220E-2,5.683349818E-2,4.414882064E-1,4.453294171E-1
3.295140548E0,1.796913147E-2,5.856741592E-2,6.605495214E-1,6.633842794E-1
3.305150395E0,-7.779884338E-2,2.254972905E-1,2.391653359E-1,3.377894995E-1
3.315129472E0,1.308209419E0,3.966507912E-1,3.056459427E-1,1.400772350E0
3.325139318E0,-4.291725159E-2,-5.368151665E-1,-2.097953081E0,2.165968500E0
3.335149164E0,-2.921772003E-1,3.445611000E-1,2.367046595E0,2.409771659E0
3.345128318E0,5.672264099E-2,6.390978098E-1,-3.481108546E-1,7.299620782E-1
3.355138087E0,4.039764404E-3,-2.490105629E-1,-2.880178988E-1,3.807583094E-1
3.365147933E0,-9.178447723E-2,-2.928092182E-1,4.819032550E-1,5.713076016E-1
3.375127087E0,1.978244781E-1,4.818060622E-2,-8.901550174E-1,9.131439371E-1
3.385136856E0,1.907472610E-1,-1.877470464E-1,-4.491478205E-3,2.676819837E-1
3.395146472E0,-1.421852112E-1,-1.586281359E-1,-5.398299098E-1,5.803411508E-1
3.405125856E0,-2.929744720E-1,1.962336451E-1,3.234083652E-1,4.784711647E-1
3.415135626E0,-3.600873947E-1,1.943847239E-1,1.887690127E-1,4.506463057E-1
3.425145472E0,-2.044134140E-1,1.796029061E-1,5.299175978E-1,5.956968257E-1
3.435124626E0,-3.193922043E-1,-9.432087094E-2,4.187690318E-1,5.350470155E-1
3.445134395E0,-4.847574234E-1,-5.699957907E-2,4.180009365E-1,6.426223576E-1
3.455144241E0,-5.977296829E-1,3.314977139E-2,5.986322165E-1,8.466051097E-1
3.465123395E0,-6.582660675E-1,-1.978065819E-2,6.790689230E-1,9.459598788E-1
3.475133241E0,-7.628593445E-1,9.573373012E-3,8.993570805E-1,1.179359651E0
3.485143010E0,-8.083829880E-1,7.233173400E-2,9.454624057E-1,1.246039364E0
3.495122164E0,-7.638120651E-1,8.945654333E-2,8.159440756E-1,1.121238636E0
3.505131934E0,-7.180337906E-1,8.220168203E-2,9.719237089E-1,1.211183445E0
3.515141780E0,-5.612068176E-1,8.659275621E-2,5.612333417E-1,7.983948030E-1
3.525120934E0,-6.191158295E-1,3.581665084E-2,7.958253622E-1,1.008922817E0
3.535130703E0,-4.540052414E-1,-1.631681919E-1,1.273187995E-1,4.989535998E-1
3.545140549E0,-4.825973511E-1,-2.353650518E-3,8.230564594E-1,9.541109361E-1
3.555150395E0,-4.113016129E-1,6.056363136E-2,4.407938719E-1,6.059176575E-1
3.565129472E0,-3.257684708E-1,4.221409559E-2,4.998744130E-1,5.981484391E-1
3.575139318E0,-3.105211258E-1,7.648988068E-2,4.552104473E-1,5.563188139E-1
3.585149165E0,-1.941547394E-1,-1.844546571E-2,5.113017559E-1,5.472346696E-1
3.595128318E0,7.159233093E-2,6.619367003E-2,-1.297873259E-1,1.623324174E-1
3.605138088E0,2.395038605E-1,-7.994693518E-1,-2.656815529E0,2.784812758E0
3.615147934E0,-1.014347076E-1,1.688973010E-1,3.134637833E0,3.140823083E0
3.625127088E0,8.372783661E-2,5.925455093E-1,7.634948492E-1,9.700746961E-1
3.635136857E0,3.099536896E-2,7.040689886E-2,-6.779839993E-1,6.823343371E-1
3.645146472E0,5.682268143E-1,1.341493130E-1,3.043324947E-1,6.584041449E-1
3.655125857E0,2.854547501E-1,1.948562264E-1,2.331705093E-1,4.169194763E-1
3.665135626E0,5.053586960E-1,1.696564555E-1,-8.448843956E-1,9.989996829E-1
3.675145472E0,5.563631058E-1,-7.114143111E-3,-1.399881840E-1,5.737483840E-1
3.685124626E0,5.270090103E-1,-6.898081303E-2,-5.623755455E-1,7.737978442E-1
3.695134396E0,5.288791656E-1,-8.461911976E-2,-5.738701820E-1,7.849844286E-1
3.705144242E0,4.355659485E-1,-4.488631338E-2,-2.068581581E-1,4.842755148E-1
3.715123396E0,3.940191269E-1,2.345613390E-2,-2.893955708E-1,4.894395355E-1
3.725133242E0,4.332008362E-1,2.818308771E-2,-4.813489914E-1,6.481929515E-1
3.735143011E0,4.233570099E-1,-2.587086521E-2,-4.424867630E-1,6.129396340E-1
3.745122165E0,2.992219925E-1,-6.375621259E-2,-5.640666485E-1,6.416929479E-1
3.755131934E0,4.049921036E-1,-8.146481961E-2,-4.329922199E-1,5.984458065E-1
3.765141780E0,4.090909958E-1,-7.966478169E-2,-6.845145226E-1,8.014125354E-1
3.775120934E0,4.061565399E-1,-5.393923819E-2,-4.921140671E-1,6.403505535E-1
3.785130704E0,3.118782043E-1,-1.857238077E-2,-3.817744255E-1,4.933200377E-1
3.795140550E0,3.414916992E-1,-5.034267902E-2,-5.227718353E-1,6.264514010E-1
3.805150396E0,3.411512375E-1,-9.600435942E-2,-2.362399101E-1,4.259228792E-1
3.815129473E0,3.086433411E-1,-1.475523263E-1,-5.785703659E-1,6.721428935E-1
3.825139319E0,3.131752014E-1,-2.032306641E-1,-3.877706528E-1,5.382819789E-1
3.835149165E0,3.170576096E-1,-2.366759777E-1,-3.217983246E-1,5.099953018E-1
3.845128319E0,3.205175400E-1,-2.212421298E-1,-3.249654770E-1,5.072298637E-1
3.855138088E0,3.147468567E-1,-1.810415685E-1,-2.502627373E-1,4.409910101E-1
3.865147934E0,2.721261978E-1,-1.972891688E-1,-2.393035889E-1,4.126037946E-1
3.875127088E0,4.419355392E-1,-1.129888892E-1,-2.639865875E-1,5.270317147E-1
3.885136858E0,4.209623337E-1,-8.335337043E-4,-3.780879974E-1,5.658272837E-1
3.895146473E0,5.277853012E-1,1.246522367E-2,-1.942439079E-1,5.625330228E-1
3.905125858E0,6.122941971E-1,-1.812587678E-2,-4.669880867E-1,7.702665800E-1
3.915135627E0,6.011261940E-1,-7.410049438E-2,-3.615746498E-1,7.053933738E-1
3.925145473E0,7.223205566E-1,-7.888605446E-2,-3.482475281E-1,8.057582373E-1
3.935124627E0,7.521324158E-1,-4.807627201E-2,-4.822530746E-1,8.947527741E-1
3.945134396E0,8.948316574E-1,-1.451009512E-2,-3.205122948E-1,9.506115763E-1
3.955144242E0,8.255286217E-1,7.224304229E-2,-6.978392601E-1,1.083372602E0
3.965123396E0,1.017744541E0,2.088498175E-1,-4.524421692E-1,1.133192885E0
3.975133242E0,1.206868172E0,2.821016610E-1,-7.783913612E-1,1.463559101E0
3.985143012E0,1.230338097E0,3.534091711E-1,-7.733554840E-1,1.495562964E0
3.995122166E0,1.201150417E0,4.039503634E-1,-5.082464218E-1,1.365376375E0
4.005131935E0,1.219167709E0,4.494274855E-1,-5.361065865E-1,1.405619166E0
4.015141781E0,1.262507915E0,5.365008116E-1,-6.281652451E-1,1.508758076E0
4.025120935E0,1.220531940E0,5.204334855E-1,-6.281409264E-1,1.468029378E0
4.035130704E0,1.157054901E0,4.979755878E-1,-4.150714874E-1,1.326288080E0
4.045140550E0,1.093333244E0,4.694653451E-1,-5.395879745E-1,1.306495494E0
4.055150396E0,1.200051308E0,4.526346922E-1,-5.037803650E-1,1.377968055E0
4.065129473E0,1.343020916E0,4.442506731E-1,-3.563532829E-1,1.458784255E0
4.075139320E0,1.550558567E0,4.470749497E-1,-8.339800835E-1,1.816488552E0
4.085149166E0,1.624257088E0,3.853410184E-1,-8.844394684E-1,1.889161708E0
4.095128320E0,1.569223881E0,4.014832079E-1,-7.812776566E-1,1.798345665E0
4.105138089E0,1.180897236E0,4.017351568E-1,-6.377096176E-1,1.400922187E0
4.115147935E0,1.118021488E0,3.686993718E-1,-2.423734665E-1,1.201938506E0
4.125127089E0,8.776154518E-1,2.753699720E-1,-2.604284286E-1,9.559604956E-1
4.135136858E0,9.833426476E-1,5.946783349E-2,-1.046838760E-1,9.906855705E-1
4.145146474E0,1.471531391E0,-2.810433209E-1,-5.625905991E-1,1.600280652E0
4.155125858E0,1.503484011E0,-4.787737727E-1,-9.887361526E-1,1.862065433E0
4.165135627E0,1.579299927E0,-5.648407340E-1,-8.549995422E-1,1.882619858E0
4.175145474E0,1.335418224E0,-5.469124913E-1,-2.855138779E-1,1.471044962E0
4.185124628E0,8.944735527E-1,-4.589070082E-1,-7.292928696E-1,1.241993023E0
4.195134397E0,6.537985802E-1,-3.017278612E-1,-3.075990677E-1,7.830130727E-1
4.205144243E0,4.548428059E-1,-2.309867591E-1,2.716493607E-1,5.779534895E-1
4.215123397E0,4.643509388E-1,-2.505177259E-1,-5.982780457E-2,5.309993329E-1
4.225133243E0,4.463016987E-1,-3.998568654E-1,1.014995575E-2,5.993110550E-1
4.235143012E0,5.839111805E-1,-4.009524584E-1,3.673238754E-1,7.978984710E-1
4.245122166E0,5.675144196E-1,-3.950842023E-1,-5.397510529E-2,6.935974735E-1
4.255131935E0,5.551881790E-1,-4.026160538E-1,-1.844987869E-1,7.101925114E-1
4.265141782E0,6.365725994E-1,-3.516598344E-1,6.475639343E-2,7.301251290E-1
4.275120935E0,5.441944599E-1,-2.921347618E-1,-1.089267731E-1,6.271804933E-1
4.285130705E0,5.747809410E-1,-1.474785507E-1,9.438800812E-2,6.008595086E-1
4.295140551E0,5.760545731E-1,-1.150349975E-1,-1.509952545E-1,6.065241039E-1
4.305150397E0,6.010448933E-1,-9.344762564E-2,8.432579041E-2,6.140832691E-1
4.315129474E0,6.188870668E-1,-6.518372893E-2,2.207069397E-1,6.602890831E-1
4.325139320E0,6.765124798E-1,-2.684584260E-2,2.553749084E-2,6.775263818E-1
4.335149166E0,6.921828985E-1,5.968502164E-2,-7.847595215E-2,6.991694658E-1
4.345128320E0,6.948657036E-1,1.722205281E-1,-9.978866577E-2,7.228112023E-1
4.355138089E0,7.266691923E-1,2.631129324E-1,-1.053600311E-1,7.799854271E-1
4.365147936E0,7.056604624E-1,3.302335441E-1,-3.529930115E-2,7.799082783E-1
4.375127090E0,6.431703568E-1,2.221520841E-1,-2.658863068E-1,7.305581321E-1
4.385136859E0,5.940469503E-1,5.031614304E-1,3.206882477E-1,8.419644627E-1
4.395146474E0,8.156740665E-1,5.956083536E-1,-3.852767944E-1,1.080977198E0
4.405125859E0,7.927463651E-1,7.283236980E-1,-6.710042953E-1,1.268522358E0
4.415135628E0,7.261627913E-1,8.461229205E-1,1.706438065E-1,1.127987458E0
4.425145474E0,8.977636695E-1,7.621381283E-1,-9.584426880E-4,1.177639610E0
4.435124628E0,8.245179653E-1,6.194590330E-1,-2.157449722E-1,1.053615329E0
4.445134397E0,6.207014322E-1,4.623053968E-1,1.622409821E-1,7.907709429E-1
4.455144244E0,4.992299676E-1,2.579441369E-1,-2.061719894E-1,5.985587920E-1
4.465123397E0,1.987540722E-1,1.458029151E-1,-1.173477173E-1,2.730057838E-1
4.475133244E0,7.325058579E-1,2.251884639E-1,-4.500226974E-1,8.887041715E-1
4.485143013E0,2.312009335E-1,1.198542595E0,-7.231076241E0,7.333377245E0
4.495122167E0,2.099598646E0,4.973432124E-1,5.921610355E0,6.302470464E0
4.505131936E0,2.862657547E0,-7.338327169E-1,2.765771866E0,4.047568740E0
4.515141782E0,3.053331852E0,1.390435696E0,-1.350041389E0,3.616456633E0
4.525120936E0,-2.111974478E0,3.538299322E0,-2.512861252E0,4.826434498E0
4.535130705E0,2.298694134E0,3.746911287E-1,1.568834305E0,2.808136257E0
4.545140551E0,9.249137044E-1,3.487807512E-1,4.583955288E0,4.689323987E0
4.555150398E0,3.180278242E-1,1.494643390E-1,-6.121826172E-1,7.058674397E-1
4.565129475E0,-2.274487257E0,7.752043009E-1,-7.420634270E0,7.800003010E0
4.575139321E0,-6.113042831E-1,2.068107873E-1,1.140877724E0,1.310750018E0
4.585149167E0,1.966077685E-1,-2.259975970E-1,1.912045479E0,1.935367521E0
4.595128321E0,6.340200305E-1,-2.734467983E-1,7.971639633E-1,1.054620754E0
4.605138090E0,4.368528724E-1,6.348192692E-2,3.353853226E-1,5.543948969E-1
4.615147936E0,1.174078226E0,-1.946712136E-1,-1.762167931E0,2.126403625E0
4.625127090E0,4.508673251E-1,1.157661751E-1,3.926725388E-1,6.089949711E-1
4.635136859E0,5.179798603E-1,1.684653759E-2,5.556068420E-1,7.597933301E-1
4.645146475E0,5.791019201E-1,-1.799611002E-1,-7.397212982E-1,9.565211082E-1
4.655125859E0,1.626293212E-1,7.513667643E-2,8.594779968E-1,8.779500232E-1
4.665135629E0,5.892475843E-1,-1.524865031E-1,-3.180599213E-1,6.867510195E-1
4.675145475E0,4.251717329E-1,-1.705220044E-1,3.095846176E-1,5.528936533E-1
4.685078231E0,4.413074851E-1,-2.651713490E-1,1.193370819E-1,5.284973793E-1
4.695088000E0,4.322667122E-1,-2.556152642E-1,-5.035896301E-1,7.111934964E-1
4.705097846E0,3.041500449E-1,-3.032127023E-1,4.816312790E-1,6.453013881E-1
4.715077000E0,1.235596091E-1,-2.420589626E-1,2.269325256E-1,3.540591611E-1
4.725086846E0,-3.599834442E-2,-2.143423855E-1,-3.196268082E-1,3.865227491E-1
4.735096615E0,-6.728757918E-2,-2.278459072E-1,-8.949279785E-3,2.377424349E-1
4.745075769E0,-8.324509114E-2,-1.889583766E-1,2.060413361E-1,2.916985524E-1
4.755085539E0,-1.113131642E-3,-4.062178731E-2,1.769504547E-1,1.815566911E-1
4.765095385E0,-1.058532894E-1,4.056023657E-1,-7.925128937E-2,4.266133669E-1
4.775074539E0,-2.928774059E-2,4.425817728E-1,-3.208475113E-1,5.474299251E-1
4.785084385E0,5.993987620E-2,4.027150869E-1,5.842218399E-1,7.121006869E-1
4.795094154E0,3.099919856E-2,4.059783220E-1,-1.912841797E-1,4.498544050E-1
4.805104000E0,-1.302552223E-2,3.563396335E-1,-2.054491043E-1,4.115299905E-1
4.815083077E0,-4.387434572E-2,2.924717367E-1,4.867677689E-1,5.695678500E-1
4.825092923E0,-3.477533162E-2,2.553301156E-1,1.301956177E-2,2.580160859E-1
4.835102770E0,-8.255228400E-2,3.176274598E-1,-2.836017609E-1,4.337419066E-1
4.845081923E0,-1.253481209E-2,3.995685279E-1,2.481985092E-1,4.705471602E-1
4.855091693E0,7.640138268E-3,4.200661778E-1,1.790695190E-1,4.567054391E-1
4.865101539E0,7.147343457E-2,4.491343498E-1,-2.324104309E-1,5.107296001E-1
4.875080693E0,1.725345850E-3,4.508497417E-1,7.199668884E-2,4.565654275E-1
4.885090462E0,-3.466963768E-3,5.538774729E-1,1.753778458E-1,5.809902440E-1
4.895100077E0,1.068985462E-2,5.431649685E-1,-1.426200867E-1,5.616786849E-1
4.905079462E0,-1.101014018E-2,5.283162594E-1,1.426773071E-1,5.473537312E-1
4.915089231E0,-4.682213068E-3,5.046993494E-1,8.798408508E-2,5.123324659E-1
4.925099077E0,-1.892511547E-2,4.788988233E-1,-5.499076843E-2,4.824170680E-1
4.935078231E0,-3.945171833E-3,4.172133803E-1,4.607105255E-2,4.197679252E-1
4.945088001E0,-2.986478060E-2,3.368011713E-1,8.951663971E-2,3.497715867E-1
4.955097847E0,2.975289524E-2,2.929394245E-1,1.550006866E-2,2.948541900E-1
4.965077001E0,3.242492676E-3,2.214332819E-1,4.912471771E-2,2.268401419E-1
4.975086847E0,1.250740886E-2,1.594068855E-1,5.874919891E-2,1.703480519E-1
4.985096616E0,5.235806108E-3,1.157455146E-1,3.482818604E-2,1.209852899E-1
4.995075770E0,7.516548038E-3,9.675239772E-2,3.722476959E-2,1.039384839E-1
5.005085539E0,2.521410584E-3,8.709377050E-2,7.792377472E-2,1.168922454E-1
5.015095385E0,9.652495384E-3,5.996507406E-2,3.003215790E-2,6.775626379E-2
5.025074539E0,2.448260784E-3,5.814907700E-2,2.523994446E-2,6.343787459E-2
5.035084308E0,-1.417267323E-2,2.633446082E-2,6.833171844E-2,7.458949148E-2
5.045094155E0,3.126433492E-2,6.204362959E-2,5.635070801E-2,8.945542411E-2
5.055104001E0,1.211294532E-2,3.857447952E-2,6.069183350E-3,4.088458024E-2
5.065083078E0,2.601677179E-2,3.698471189E-2,5.873107910E-2,7.412206811E-2
5.075092924E0,1.130005717E-2,-2.385754511E-2,8.027076721E-2,8.450011727E-2
5.085102770E0,3.933636844E-2,-8.904665709E-2,-1.790142059E-2,9.898039139E-2
5.095081924E0,3.684493899E-2,-1.990394294E-1,6.350135803E-2,2.121477468E-1
5.105091693E0,-2.293837070E-2,-2.944469452E-1,3.477096558E-2,2.973788702E-1
5.115101539E0,-4.879564792E-2,-3.183731139E-1,-4.422569275E-2,3.251128524E-1
5.125080693E0,-1.410245299E-1,-2.121944427E-1,-6.095981598E-2,2.619742330E-1
5.135090463E0,-1.168815047E-1,-1.160965636E-1,3.481864929E-2,1.683806300E-1
5.145100078E0,-4.878772050E-2,-3.908754885E-2,2.478466034E-1,2.556091097E-1
5.155079463E0,1.868004352E-1,3.561558574E-2,1.016664505E-1,2.156361280E-1
5.165089232E0,2.603409886E-1,5.397746712E-2,3.002166748E-1,4.010249982E-1
5.175099078E0,2.896992564E-1,3.713816404E-1,7.716741562E-1,9.040635959E-1
5.185078232E0,-5.154435635E-1,5.254386067E-1,-1.023946762E0,1.261045109E0
5.195088001E0,-3.135060072E-1,2.048726678E-1,-2.982769012E-1,4.787775437E-1
5.205097847E0,-2.544900179E-1,-2.546005249E-1,2.981967926E-1,4.674483112E-1
5.215077001E0,-1.898093373E-1,-7.537021637E-1,1.523408890E-1,7.920241679E-1
5.225086847E0,-8.168171346E-2,-8.852360845E-1,4.372568130E-1,9.907110316E-1
5.235096617E0,6.211170554E-2,-8.491655588E-1,1.953573227E-1,8.735585234E-1
5.245075771E0,2.618510425E-1,-6.056612134E-1,-5.206203461E-1,8.404980777E-1
5.255085540E0,1.238266081E-1,-5.080431104E-1,-1.074409485E-2,5.230260667E-1
5.265095386E0,7.358784974E-2,-6.320880055E-1,3.842611313E-1,7.433754337E-1
5.275074540E0,-1.195332855E-1,-1.522572041E-1,-1.442823410E-1,2.414287813E-1
5.285084309E0,-3.003901243E-2,2.406393141E-1,2.550735474E-1,3.519547362E-1
5.295094155E0,6.185859442E-2,4.487004280E-1,2.479429245E-1,5.163663947E-1
5.305104001E0,4.526625574E-2,4.536803961E-1,-4.294786453E-1,6.263599943E-1
5.315083078E0,-2.610288560E-2,4.469542503E-1,9.768009186E-2,4.582476000E-1
5.325092925E0,4.350394011E-3,5.037607551E-1,3.641328812E-1,6.216000156E-1
5.335102771E0,1.007036567E-1,4.114730954E-1,-3.248147964E-1,5.338126888E-1
5.345081925E0,2.120046318E-2,3.319732249E-1,-1.066083908E-1,3.493150879E-1
5.355091694E0,-3.630322218E-2,2.469283193E-1,2.263717651E-1,3.369505823E-1
5.365101540E0,-1.126650870E-1,2.673049867E-1,-2.212944031E-1,3.648514637E-1
5.375080694E0,-2.083896846E-2,3.259526491E-1,8.757972717E-2,3.381561779E-1
5.385090463E0,1.819461584E-2,3.013670743E-1,6.165504456E-3,3.019787591E-1
5.395100079E0,-4.347398132E-2,2.269608825E-1,-1.375074387E-1,2.689043044E-1
5.405079463E0,-2.172113955E-2,1.411149502E-1,-3.455162048E-3,1.428186795E-1
5.415089232E0,-3.299430758E-2,1.033241004E-1,2.042961121E-2,1.103714776E-1
5.425099079E0,6.902357936E-2,7.120916247E-2,4.907512665E-2,1.106497509E-1
5.435078233E0,5.313608050E-2,8.281335980E-2,1.926269531E-1,2.163021930E-1
5.445088002E0,7.318022847E-2,1.138248965E-1,7.520484924E-2,1.548135080E-1
5.455097848E0,2.379721403E-2,1.522779465E-1,-1.403379440E-1,2.084457217E-1
5.465077002E0,-3.755463660E-2,1.049827561E-1,9.187030792E-2,1.444710465E-1
5.475086848E0,1.102834940E-3,4.734967649E-2,2.570362091E-1,2.613633886E-1
5.485096617E0,-2.205911279E-2,-5.868680030E-2,-7.339572906E-2,9.652812042E-2
5.495075771E0,2.202653885E-2,-2.041400224E-1,1.372680664E-1,2.469834796E-1
5.505085540E0,-3.212086856E-2,-2.740172744E-1,7.264232635E-2,2.852965552E-1
5.515095387E0,5.483183265E-2,-3.470935524E-1,7.505416870E-2,3.593237985E-1
5.525074540E0,2.443420887E-1,-4.760622382E-1,3.440284729E-2,5.362106553E-1
5.535084310E0,9.899426997E-2,-5.235965848E-1,2.188110352E-1,5.760481909E-1
5.545094156E0,2.557215989E-1,-6.869550943E-1,3.203201294E-2,7.337076309E-1
5.555104002E0,-6.554403156E-2,-5.958486199E-1,-5.655097961E-2,6.021043192E-1
5.565083079E0,-1.664040238E-1,-4.327048063E-1,2.259902954E-1,5.157473821E-1
5.575092925E0,2.435970306E-2,-3.006593585E-1,2.115964890E-1,3.684596574E-1
5.585102771E0,6.728643179E-2,-1.358487308E-1,-2.482070923E-1,2.908420572E-1
5.595081925E0,1.152562797E-1,-8.505497873E-2,4.852294922E-2,1.512376806E-1
5.605091694E0,4.032866657E-2,-3.254667670E-2,2.710914612E-1,2.760004852E-1
5.615101541E0,-2.219873667E-2,5.182452500E-2,-8.327674866E-2,1.005663073E-1
5.625080695E0,-3.772629797E-2,1.141402721E-1,-3.060531616E-2,1.240482191E-1
5.635090464E0,-1.770351827E-2,1.717996597E-1,2.088279724E-1,2.709938370E-1
5.645100079E0,-6.073653698E-3,2.001737654E-1,-1.862239838E-2,2.011298569E-1
5.655079464E0,-1.520052552E-2,2.556354403E-1,-2.819538116E-2,2.576344578E-1
5.665089233E0,-2.241504192E-2,2.505231500E-1,1.465826035E-1,2.911198077E-1
5.675099079E0,-3.471821547E-3,2.633389235E-1,1.012325287E-2,2.635562983E-1
5.685078233E0,-5.783036351E-3,2.549065948E-1,-3.054809570E-2,2.567956419E-1
5.695088002E0,-3.406079113E-2,2.331829965E-1,7.484531403E-2,2.472574941E-1
5.705097849E0,-2.657918632E-2,2.128463984E-1,7.010555267E-2,2.256653074E-1
5.715077002E0,-1.659277081E-2,1.733430326E-1,1.747989655E-2,1.750104962E-1
5.725086849E0,-2.306462824E-2,1.463056803E-1,4.625701904E-2,1.551677833E-1
5.735096618E0,-1.531471312E-2,9.588059783E-2,4.389858246E-2,1.065585052E-1
5.745075772E0,-1.710961759E-2,5.642980710E-2,3.674507141E-2,6.947850327E-2
5.755085541E0,-9.358584881E-3,3.751982003E-3,7.028579712E-2,7.100530795E-2
5.765095387E0,-1.136706769E-2,-2.894650772E-2,4.157257080E-2,5.191713764E-2
5.775074541E0,8.113905787E-3,-8.223809302E-2,2.242374420E-2,8.562571877E-2
5.785084310E0,1.547731459E-2,-2.688619494E-1,4.174699783E-1,4.967972201E-1
5.795094156E0,1.200991869E-1,-4.359307587E-1,1.283454895E-2,4.523540281E-1
5.805104003E0,1.690139621E-1,-2.382835150E-1,-3.744316101E-2,2.945280007E-1
5.815083080E0,4.325911403E-1,4.055861235E-1,-4.922542572E-1,7.706811610E-1
5.825092926E0,3.621415794E-2,8.203782439E-1,1.088155746E0,1.363236904E0
5.835102772E0,-2.948892117E-2,3.068341911E-1,7.433872223E-1,8.047616912E-1
5.845081926E0,9.418661892E-2,-2.086919844E-1,-1.796810150E0,1.811339333E0
5.855091695E0,-1.259496063E-1,-2.878828645E-1,1.809997559E-1,3.626303333E-1
5.865101541E0,-8.844087273E-2,-4.684394002E-1,1.078987122E0,1.179606065E0
5.875080695E0,-4.702523351E-2,-8.758082986E-1,-2.936935425E-2,8.775614551E-1
5.885090464E0,1.287245452E-1,-1.217452645E0,-2.566757202E-1,1.250857057E0
5.895100080E0,-6.699897349E-2,-1.288256645E0,1.120147705E-1,1.294851866E0
5.905079464E0,-1.049299091E-1,-1.219723821E0,1.023311615E-1,1.228498332E0
5.915089234E0,-1.177357584E-1,-7.486997247E-1,6.381511688E-2,7.605822478E-1
5.925099080E0,-1.120016426E-1,-2.636261880E-1,-8.489990234E-2,2.987492734E-1
5.935078234E0,-1.162247807E-1,1.537052840E-1,-2.575578690E-1,3.216668616E-1
5.945088003E0,1.015347987E-1,2.862638235E-1,-7.102108002E-2,3.119299373E-1
5.955097849E0,-2.535457537E-2,4.055692852E-1,-2.865762711E-1,4.972476834E-1
5.965077003E0,-1.192515343E-1,4.454668164E-1,-1.357660294E-1,4.807224019E-1
5.975086849E0,-1.620680839E-1,4.117219448E-1,9.647655487E-2,4.528672535E-1
5.985096618E0,-5.197872967E-2,2.626520097E-1,-3.758716583E-2,2.703713402E-1
5.995075772E0,-2.133020665E-3,6.667741388E-2,-8.547973633E-2,1.084306812E-1
6.005085618E0,3.082588315E-2,-1.699594706E-1,-6.488800049E-3,1.728541618E-1
6.015095388E0,-1.269156672E-2,-3.228689432E-1,7.851600647E-3,3.232136723E-1
6.025074542E0,-4.345007986E-2,-4.102720022E-1,7.963943481E-2,4.201826565E-1
6.035084311E0,-5.706692487E-2,-4.481362402E-1,5.801391602E-2,4.554649692E-1
6.045094157E0,-9.216909111E-2,-3.121464252E-1,4.114627838E-2,3.280602816E-1
6.055104003E0,-5.730101094E-2,5.710294843E-2,-3.317356110E-2,8.743361899E-2
6.065083080E0,-3.812970221E-2,5.484465361E-1,-1.314020157E-1,5.652556650E-1
6.075092926E0,-3.931229934E-2,5.550661683E-1,-6.682014465E-2,5.604541371E-1
6.085102773E0,-1.623772830E-2,5.140742064E-1,-3.335571289E-2,5.154110564E-1
6.095081926E0,1.839465350E-1,2.923462987E-1,1.748952866E-1,3.871576518E-1
6.105091696E0,1.123034880E-1,1.498760283E-1,6.273145676E-1,6.546743190E-1
6.115101542E0,6.433552504E-2,1.865396202E-1,1.556167603E-1,2.513019414E-1
6.125080696E0,5.542071164E-2,2.438189387E-1,-4.645204544E-1,5.275399347E-1
6.135090465E0,7.967409492E-2,2.616136670E-1,4.644699097E-1,5.390008990E-1
6.145100080E0,2.306237668E-1,2.643344402E-1,5.195569992E-1,6.268967168E-1
6.155079465E0,1.942994446E-1,2.951424718E-1,-4.548740387E-1,5.759963054E-1
6.165089234E0,-4.211679846E-2,2.557436824E-1,1.580715179E-1,3.035873195E-1
6.175099080E0,-1.723543257E-1,2.004465908E-1,4.240036011E-1,4.996637900E-1
6.185078234E0,-1.236440837E-1,8.650684357E-2,-1.959247589E-1,2.473010404E-1
6.195088004E0,-8.221745491E-2,2.417714149E-2,2.206039429E-2,8.849240113E-2
6.205097850E0,-1.491471380E-1,5.479914695E-2,1.897287369E-1,2.474768855E-1
6.215077004E0,-6.797318161E-2,1.496156454E-1,-8.313369751E-2,1.841640748E-1
6.225086850E0,3.483653069E-2,1.544451267E-1,2.705669403E-2,1.606205021E-1
6.235096619E0,2.937726676E-2,1.661070436E-1,1.396131516E-1,2.189666774E-1
6.245075773E0,3.671288490E-3,9.199617803E-2,7.258510590E-2,1.172406616E-1
6.255085619E0,-3.748555481E-2,3.089912236E-2,-8.303260803E-2,9.619946247E-2
6.265095388E0,-1.064130813E-1,-2.542108297E-2,1.133184433E-1,1.575152212E-1
6.275074542E0,3.457993269E-3,-1.390122175E-1,1.683959961E-1,2.183885662E-1
6.285084311E0,2.082338929E-2,-2.158270478E-1,3.174781799E-3,2.168525014E-1
6.295094158E0,4.232016206E-2,-2.582674026E-1,4.383373260E-2,2.653571998E-1
6.305104004E0,-1.249951124E-2,-2.337601930E-1,1.395664215E-1,2.725414677E-1
6.315083081E0,-5.654881895E-2,5.516856909E-3,-6.634521484E-2,8.734925396E-2
6.325092927E0,-8.790023625E-2,2.908914983E-1,-1.740922928E-1,3.502177062E-1
6.335102773E0,-9.387180209E-3,3.711799979E-1,-2.564716339E-2,3.721834051E-1
6.345081927E0,5.368714035E-2,4.028400779E-1,1.659250259E-1,4.389687365E-1
6.355091696E0,3.752616048E-2,3.745205700E-1,7.772445679E-4,3.763966979E-1
6.365101542E0,2.816487849E-2,3.514589965E-1,-3.912925720E-3,3.526074271E-1
6.375080696E0,6.283317506E-2,2.789057493E-1,2.068653107E-1,3.528876332E-1
6.385090466E0,-4.687523842E-2,2.371361405E-1,-6.836509705E-2,2.512063367E-1
6.395100081E0,-9.547252953E-2,1.804826260E-1,1.127243042E-3,2.041819112E-1
6.405079466E0,1.270291209E-2,1.308821142E-1,1.879110336E-1,2.293513644E-1
6.415089235E0,-4.261493683E-3,5.330070481E-2,-4.190731049E-2,6.793635355E-2
6.425099081E0,7.657453418E-3,1.349945739E-2,2.035045624E-2,2.559322199E-2
6.435078235E0,-1.855435222E-2,-4.535228014E-3,1.376743317E-1,1.389929994E-1
6.445088004E0,8.023723960E-3,-5.423771590E-2,4.431915283E-2,7.050033532E-2
6.455097850E0,-2.093193680E-2,-5.231524259E-2,-1.074790955E-2,5.736329963E-2
6.465077004E0,-4.203572869E-2,-6.425765157E-2,8.742237091E-2,1.163560020E-1
6.475086850E0,-5.644379556E-2,-1.663491130E-2,3.624916077E-3,5.895559641E-2
6.485096620E0,-4.252597690E-3,-4.271197319E-2,1.319122314E-2,4.490440523E-2
6.495075774E0,-9.790658951E-3,-9.764366597E-2,7.303810120E-2,1.223303181E-1
6.505085620E0,8.621081710E-3,-1.119290367E-1,3.471755981E-2,1.175063456E-1
6.515095389E0,-6.589695811E-3,-1.662596166E-1,9.455585480E-2,1.913804950E-1
6.525074543E0,1.919345558E-2,-2.078771591E-1,3.468322754E-2,2.116228444E-1
6.535084312E0,1.848492026E-2,-2.454707623E-1,8.732318878E-2,2.611951889E-1
6.545094158E0,-5.591880530E-2,-1.889571846E-1,-1.295089722E-3,1.970619386E-1
6.555104004E0,3.039102256E-2,-9.886410087E-2,6.810760498E-2,1.238401007E-1
6.565083081E0,5.318172276E-2,-1.689012349E-2,9.679698944E-2,1.117283718E-1
6.575092928E0,9.946128726E-2,1.593725085E-1,-4.210281372E-2,1.925221833E-1
6.585102774E0,1.649711430E-1,2.106612772E-1,-1.579761505E-2,2.680358490E-1
6.595081928E0,1.530181170E-1,1.846859157E-1,1.110544205E-1,2.643038325E-1
6.605091697E0,-1.176821589E-1,1.890401542E-1,-3.981208801E-2,2.262084720E-1
6.615101543E0,-2.835124731E-1,1.998511255E-1,-1.307535172E-1,3.706970151E-1
6.625080697E0,-3.368684351E-1,6.388573349E-2,-8.990955353E-2,3.544650298E-1
6.635090466E0,-2.352540344E-1,1.533935219E-2,2.310514450E-1,3.300977532E-1
6.645100082E0,2.003836632E-2,-7.344352454E-2,2.670030594E-1,2.776438747E-1
6.655079466E0,1.321701556E-1,-1.988380402E-2,-2.694063187E-1,3.007392230E-1
6.665089235E0,2.173035294E-1,-1.020211652E-1,6.795406342E-2,2.494932800E-1
6.675099082E0,1.603036970E-1,-2.044114619E-1,2.401523590E-1,3.537717860E-1
6.685078236E0,7.401947677E-2,-2.810095549E-1,-4.096984863E-3,2.906235334E-1
6.695088005E0,-1.313081980E-1,-3.351135254E-1,9.654045105E-2,3.726432294E-1
6.705097851E0,-1.761782616E-1,-3.764155507E-1,1.205854416E-1,4.327450698E-1
6.715077005E0,-9.011874348E-2,-2.734981477E-1,8.715248108E-2,3.008623933E-1
6.725086851E0,1.599102169E-1,-7.620260119E-3,1.771354675E-2,1.610686673E-1
6.735096620E0,3.432585895E-1,3.405436873E-2,-2.075004578E-2,3.455672492E-1
6.745075774E0,3.257403970E-1,1.898624003E-1,6.122589111E-4,3.770343647E-1
6.755085620E0,-1.635233015E-1,2.838941216E-1,1.777601242E-1,3.727390564E-1
6.765095390E0,-2.906803489E-1,1.910051405E-1,-4.301261902E-1,5.531605268E-1
6.775074543E0,-4.852390289E-1,1.338551939E-1,5.860424042E-2,5.067628490E-1
6.785084313E0,-2.961504459E-1,7.618516684E-2,4.897508621E-1,5.773778427E-1
6.795094159E0,-1.356319934E-1,1.349574327E-2,8.034038544E-2,1.582174145E-1
6.805103774E0,4.088252783E-3,2.769283950E-3,-3.483610153E-1,3.483960099E-1
6.815083082E0,1.864457428E-1,-4.054746777E-2,6.324672699E-2,2.010130857E-1
6.825092928E0,2.984315753E-1,-6.472679973E-2,3.384351730E-1,4.558391494E-1
6.835102774E0,1.615408957E-1,1.714631915E-3,-1.237201691E-1,2.034823854E-1
6.845081928E0,2.667777240E-2,5.934184417E-2,1.636095047E-1,1.760716560E-1
6.855091697E0,-5.749882758E-2,1.416645944E-1,-1.787176132E-1,2.351913216E-1
6.865101544E0,9.307266772E-2,8.803457022E-2,9.428501129E-2,1.590668739E-1
6.875080697E0,-1.531904936E-2,8.113808930E-2,1.206836700E-1,1.462279420E-1
6.885090467E0,-8.511914313E-2,9.578450769E-2,-1.809177399E-1,2.217006293E-1
6.895100313E0,-1.108843237E-1,1.241446584E-1,-3.718471527E-2,1.705577102E-1
6.905079467E0,-7.482279837E-2,1.192447320E-1,2.789402008E-1,3.124506247E-1
6.915089236E0,7.280687988E-2,1.484065652E-1,-2.237634659E-1,2.782003577E-1
6.925099082E0,8.432030678E-2,2.244195491E-1,1.019058228E-1,2.604973030E-1
6.935078236E0,6.119666994E-2,2.412632555E-1,4.202747345E-1,4.884504512E-1
6.945088005E0,6.154167652E-2,2.038203478E-1,-5.614156723E-1,6.004312361E-1
6.955097852E0,-3.441167623E-2,1.773701459E-1,2.047605515E-1,2.730773069E-1
6.965077005E0,-5.501645803E-2,1.305087209E-1,5.016946793E-1,5.213030674E-1
6.975086775E0,-6.274158508E-2,1.005840898E-1,-3.961000443E-1,4.134596844E-1
6.985096621E0,-4.643395543E-3,5.276099592E-2,5.401706696E-2,7.565135383E-2
6.995075775E0,1.288095117E-2,-2.046666807E-3,3.628463745E-1,3.630807062E-1
7.005085621E0,3.089475632E-2,-6.288396567E-2,-1.279840469E-1,1.459068037E-1
7.015095390E0,5.031332374E-3,-1.147188172E-1,3.705978394E-3,1.148888837E-1
7.025074544E0,-2.211362123E-3,-1.799622327E-1,2.383365631E-1,2.986563454E-1
7.035084390E0,1.453103125E-2,-1.901390254E-1,-1.544666290E-2,1.913180579E-1
7.045094159E0,4.479140043E-4,-9.366504103E-2,-1.375474930E-1,1.664110975E-1
7.055103775E0,-1.363500953E-3,5.036007613E-3,1.880731583E-1,1.881455112E-1
7.065083083E0,-8.251309395E-3,1.002534330E-1,5.400180817E-2,1.141710568E-1
7.075092929E0,-7.714480162E-3,1.273676902E-1,-7.049083710E-2,1.457772267E-1
7.085102544E0,-5.038021505E-2,1.493364871E-1,1.091766357E-2,1.579833783E-1
7.095081929E0,7.269248366E-3,1.416390240E-1,-1.541709900E-2,1.426609338E-1
7.105091698E0,9.413182735E-3,1.528399885E-1,9.710788727E-2,1.813246036E-1
7.115101544E0,1.152001321E-2,1.084156632E-1,-1.057624817E-3,1.090311208E-1
7.125080698E0,-1.964214444E-2,1.141898930E-1,2.288246155E-2,1.181048371E-1
7.135090467E0,1.604312658E-2,1.005205661E-1,7.555007935E-2,1.267658495E-1
7.145100314E0,-2.258446813E-2,9.148834646E-2,3.723812103E-2,1.013254825E-1
7.155079467E0,1.801301539E-2,7.068156451E-2,2.047824860E-2,7.576088008E-2
7.165089237E0,-6.075918674E-3,5.494261160E-2,5.878257751E-2,8.069076017E-2
7.175099083E0,-6.210148335E-3,3.922770172E-2,3.244113922E-2,5.128163452E-2
7.185078237E0,8.223906159E-3,-4.729263950E-3,1.089382172E-2,1.444555024E-2
7.195088006E0,8.033767343E-3,-5.240492988E-3,7.553195953E-2,7.613856510E-2
7.205097852E0,-2.311864495E-2,6.190602668E-3,4.680061340E-2,5.256512837E-2
7.215077006E0,-8.720323443E-3,-8.381652646E-3,2.525424957E-2,2.800130825E-2
7.225086775E0,1.277446747E-2,-1.559711434E-2,4.440689087E-2,4.876913934E-2
7.235096621E0,3.198504448E-3,-3.007570468E-2,4.201316833E-2,5.176760335E-2
7.245075775E0,9.243190289E-4,-2.289132029E-2,3.962230682E-2,4.576892077E-2
7.255085621E0,-1.110649109E-2,-2.282990888E-2,5.398559570E-2,5.965738368E-2
7.265095391E0,-3.803968430E-3,-4.922354594E-2,4.440975189E-2,6.640522354E-2
7.275074545E0,8.286312222E-3,-4.911828041E-2,3.962135315E-2,6.364840977E-2
7.285084391E0,-1.540401578E-2,-7.065948844E-2,5.159950256E-2,8.884005669E-2
7.295094160E0,-1.053051651E-2,-6.092512235E-2,5.638790131E-2,8.368009157E-2
7.305103775E0,-6.317943335E-4,-5.352107435E-2,4.442024231E-2,6.955618226E-2
7.315083083E0,-4.938095808E-4,-4.601245373E-2,4.681873322E-2,6.564589497E-2
7.325092929E0,1.165124774E-2,-5.770352483E-2,4.921722412E-2,7.673189364E-2
7.335102545E0,1.180145144E-2,-5.730140954E-2,3.964233398E-2,7.066994011E-2
7.345081929E0,-4.917114973E-3,-7.352925092E-2,3.006362915E-2,7.958988980E-2
7.355091699E0,-9.525835514E-3,-6.573982537E-2,3.485584259E-2,7.501597126E-2
7.365101545E0,-4.430875182E-3,-7.458850741E-2,3.486156464E-2,8.245245164E-2
7.375080699E0,-1.612092555E-2,-6.899856031E-2,3.007793427E-2,7.697640999E-2
7.385090468E0,-1.540765166E-3,-6.575910747E-2,4.923534393E-2,8.216296772E-2
7.395100314E0,-1.332566142E-3,-6.251334399E-2,3.966236115E-2,7.404591009E-2
7.405079468E0,-1.301272213E-2,-4.736505449E-2,3.487777710E-2,6.024316276E-2
7.415089237E0,-3.386497498E-3,-5.854637548E-2,3.248882294E-2,6.704230055E-2
7.425099083E0,1.600395143E-2,-5.768847093E-2,4.206848145E-2,7.316996153E-2
7.435078237E0,-1.723825932E-2,-7.601287216E-2,3.967666626E-2,8.746057491E-2
7.445088007E0,-2.714246511E-4,-5.360757932E-2,3.249740601E-2,6.268913486E-2
7.455097853E0,4.703730345E-3,-8.136264980E-2,3.729152679E-2,8.962512947E-2
7.465077007E0,-9.394139051E-3,-6.369493157E-2,3.250598907E-2,7.212443055E-2
7.475086776E0,-9.170994163E-3,-6.754405797E-2,3.729724884E-2,7.770065425E-2
7.485096622E0,3.005266190E-3,-7.123778015E-2,2.533054352E-2,7.566696360E-2
7.495075776E0,-1.524314284E-3,-6.554058939E-2,4.448795319E-2,7.922796457E-2
7.505085545E0,5.774199963E-3,-5.980686843E-2,5.167007446E-2,7.924644782E-2
7.515095391E0,1.070429385E-2,-6.841642410E-2,3.970050812E-2,7.982179738E-2
7.525074545E0,-1.177325845E-3,-5.791528523E-2,4.209423065E-2,7.160649840E-2
7.535084391E0,1.819390059E-2,-5.696312338E-2,3.491592407E-2,6.924548503E-2
7.545094161E0,-5.623519421E-3,-6.069821864E-2,5.646514893E-2,8.309158056E-2
7.555104007E0,-6.435364485E-4,-4.798231274E-2,3.970718384E-2,6.228464436E-2
7.565083161E0,6.598174572E-3,-7.094821334E-2,3.252506256E-2,7.832665305E-2
7.575092930E0,-5.167424679E-4,-5.807932466E-2,2.773761749E-2,6.436497806E-2
7.585102545E0,2.006918192E-3,-5.005224049E-2,4.210376740E-2,6.543685298E-2
7.595081930E0,4.523143172E-3,-5.885171145E-2,4.689407349E-2,7.538591973E-2
7.605091699E0,1.168726385E-2,-5.092211813E-2,2.055644989E-2,5.614465142E-2
7.615101545E0,4.606142640E-3,-4.783092812E-2,3.731727600E-2,6.084072093E-2
7.625080699E0,1.659265161E-2,-4.705565050E-2,2.294921875E-2,5.492009626E-2
7.635090469E0,7.081240416E-3,-7.019624114E-2,3.252696991E-2,7.768951028E-2
7.645100315E0,2.368509769E-3,-5.987053365E-2,3.970718384E-2,7.188011607E-2
7.655079469E0,9.670957923E-3,-6.852103770E-2,3.731441498E-2,7.861949885E-2
7.665089238E0,7.275164127E-3,-6.047155708E-2,4.449462891E-2,7.542883554E-2
7.675099084E0,9.660169482E-3,-5.727867037E-2,4.209899902E-2,7.173904566E-2
7.685078238E0,-2.299219370E-3,-7.310416549E-2,4.928112030E-2,8.819373130E-2
7.695088007E0,2.558544278E-3,-9.121935070E-2,5.167770386E-2,1.048718321E-1
7.705097853E0,1.456731558E-2,-7.819806039E-2,4.448986053E-2,9.113995295E-2
7.715077007E0,1.696716249E-2,-7.222927362E-2,4.688262939E-2,8.776635750E-2
7.725086776E0,4.831805825E-3,-7.823906094E-2,4.927349091E-2,9.258819531E-2
7.735096623E0,9.507805109E-3,-7.923017442E-2,5.644798279E-2,9.774555569E-2
7.745075776E0,9.454786777E-3,-6.602519006E-2,4.686927795E-2,8.151961685E-2
7.755085546E0,-4.927754402E-3,-8.868382871E-2,3.010654449E-2,9.378437108E-2
7.765095392E0,-1.456961036E-2,-6.347603351E-2,2.770900726E-2,7.077619275E-2
7.775074546E0,-1.219271123E-2,-5.518794060E-2,5.164432526E-2,7.656048149E-2
7.785084392E0,-1.187473536E-4,-6.828096509E-2,3.967380524E-2,7.897034327E-2
7.795094161E0,-1.911684871E-2,-3.857239336E-2,5.403614044E-2,6.908826172E-2
7.805104007E0,1.450851560E-2,-4.012015834E-2,6.361198425E-2,7.659379003E-2
7.815083161E0,1.464036107E-2,-3.222515061E-2,1.572704315E-2,3.873164586E-2
7.825092931E0,2.628505230E-3,-7.715847343E-3,4.924583435E-2,4.991588465E-2
7.835102546E0,1.221024990E-2,-2.405726537E-2,4.206085205E-2,4.996956569E-2
7.845081931E0,1.465095580E-2,-3.312355280E-2,2.051162720E-2,4.162387663E-2
7.855091700E0,7.463067770E-3,-6.279408932E-3,2.529811859E-2,2.711315477E-2
7.865101546E0,3.496259451E-4,-2.036759257E-2,6.121253967E-2,6.451306905E-2
7.875080700E0,7.597774267E-3,-1.778322458E-2,4.684734344E-2,5.068178014E-2
7.885090469E0,5.209267139E-3,-2.949873358E-2,4.924011230E-2,5.763592982E-2
7.895100315E0,-1.630099118E-2,-2.453697473E-2,3.487396240E-2,4.565061550E-2
7.905079469E0,7.671639323E-3,-2.443749085E-2,5.163383484E-2,5.763764316E-2
7.915089238E0,1.014898717E-2,-1.939111575E-2,3.966522217E-2,4.530283833E-2
7.925099085E0,1.267282665E-2,-3.360019252E-2,7.557487488E-2,8.367278641E-2
7.935078238E0,7.950574160E-3,-2.393030375E-2,3.487586975E-2,4.303716252E-2
7.945088008E0,1.272918284E-2,-4.521430656E-2,3.247928619E-2,5.710752705E-2
7.955097854E0,-6.469815969E-3,-2.115778998E-2,3.008842468E-2,3.734734121E-2
7.965077008E0,3.184095025E-3,-2.577960491E-2,3.248214722E-2,4.159106128E-2
7.975086777E0,1.037685573E-2,-2.316950262E-2,3.726673126E-2,4.509228587E-2
7.985096623E0,-3.906935453E-3,-3.496862575E-2,3.247928619E-2,4.788499727E-2
7.995075777E0,3.240168095E-3,-1.794058830E-2,2.050781250E-2,2.743963869E-2
8.005085546E0,-3.906592727E-3,-2.259359881E-2,2.290248871E-2,3.240765593E-2
8.015095393E0,8.602887392E-4,-2.963702753E-2,3.487014771E-2,4.577139607E-2
8.025074546E0,1.052384079E-2,-2.476725727E-2,4.684257507E-2,5.402217227E-2
8.035084316E0,-1.097851992E-2,-2.463398501E-2,2.768993378E-2,3.865350631E-2
8.045094162E0,-1.353904605E-3,-3.399530426E-2,4.205417633E-2,5.409313742E-2
8.055104008E0,2.015775442E-2,-2.905092388E-2,4.444789886E-2,5.679706819E-2
8.065083162E0,2.010361850E-2,-1.216058061E-2,2.289962769E-2,3.280896441E-2
8.075092931E0,5.802109838E-3,-3.355932608E-2,3.247928619E-2,4.706162850E-2
8.085102777E0,5.806282163E-3,-2.371434122E-2,4.923725128E-2,5.495807316E-2
8.095081931E0,1.059156656E-2,-3.067777306E-2,3.965950012E-2,5.124629735E-2
8.105091700E0,1.775518060E-2,-3.994996101E-2,3.247356415E-2,5.445895878E-2
8.115101547E0,1.300373673E-2,-2.063233778E-2,2.050304413E-2,3.186165956E-2
8.125080700E0,3.470629454E-3,-2.764550224E-2,3.965759277E-2,4.846693437E-2
8.135090470E0,1.069256663E-2,-3.219821304E-2,4.683780670E-2,5.783455750E-2
8.145100085E0,1.790316403E-2,-2.245408297E-2,3.965568542E-2,4.896205174E-2
8.155079470E0,8.300393820E-3,-2.696370333E-2,4.204845428E-2,5.063605773E-2
8.165089316E0,5.890876055E-3,-1.259119809E-2,4.444313049E-2,4.656643145E-2
8.175134778E0,1.066114008E-2,-2.909711748E-2,2.528953552E-2,3.999828447E-2
8.185078239E0,2.031522989E-2,-3.377463296E-2,4.444313049E-2,5.940224108E-2
8.195088008E0,-8.428156376E-3,-2.876179293E-2,4.204750061E-2,5.163590669E-2
8.205097855E0,-1.564691961E-2,-2.139337361E-2,4.443645477E-2,5.174070970E-2
8.215077008E0,5.862981081E-3,-2.838271111E-2,3.964900970E-2,4.911208413E-2
8.225086855E0,3.370255232E-3,-3.534869105E-2,4.203891754E-2,5.502871221E-2
8.235096624E0,2.012667060E-2,-3.988717496E-2,3.485488892E-2,5.666509399E-2
8.245075778E0,8.092656732E-3,-2.528993040E-2,6.358623505E-2,6.890777141E-2
8.255085624E0,-1.116125286E-2,-4.183834419E-2,1.809310913E-2,4.692953449E-2
8.265095393E0,-1.614689827E-3,-1.754518598E-2,5.639839172E-2,5.908654131E-2
8.275074547E0,1.498501003E-2,-1.023793966E-2,5.400180817E-2,5.696982727E-2
8.285084316E0,-4.193469882E-3,-1.475387439E-2,-2.261352539E-2,2.732459569E-2
8.295094162E0,7.869794965E-3,-7.330663502E-3,4.681873322E-2,4.803817315E-2
8.305103778E0,1.011130214E-2,-7.342159748E-3,6.117916107E-2,6.244225725E-2
8.315083086E0,1.724709570E-2,-2.875975892E-2,8.506774902E-3,3.459698343E-2
8.325092932E0,1.252497733E-2,-2.617233619E-2,5.878829956E-2,6.555860282E-2
8.335102778E0,4.448443651E-4,-2.847414091E-2,5.160045624E-2,5.893709928E-2
8.345081932E0,1.242029667E-2,-1.898761839E-2,2.047824860E-2,3.056390170E-2
8.355091701E0,2.444009483E-2,-1.645691320E-2,3.962898254E-2,4.938222843E-2
8.365101547E0,2.817243338E-3,-3.776302934E-2,3.723621368E-2,5.310855726E-2
8.375080701E0,-2.029716969E-3,-3.990288451E-2,4.441642761E-2,5.974260611E-2
8.385090470E0,9.936973453E-3,-2.288728952E-2,5.638504028E-2,6.165909690E-2
8.395100086E0,7.536143064E-3,-3.230993822E-2,3.722858429E-2,4.986675294E-2
8.405079470E0,-6.934449077E-3,-2.253608778E-2,3.483676910E-2,4.206616595E-2
8.415089240E0,-4.396200180E-3,-3.417266533E-2,3.244209290E-2,4.732427520E-2
8.425099086E0,1.476803422E-2,-3.161650151E-2,5.159378052E-2,6.228656509E-2
8.435078240E0,-1.974388957E-3,-4.094099998E-2,2.286243439E-2,4.693351252E-2
8.445088009E0,-4.397630692E-3,-2.628076449E-2,5.158996582E-2,5.806498352E-2
8.455097855E0,1.943783462E-2,-1.410827786E-2,4.201030731E-2,4.839151619E-2
8.465077009E0,-2.147957683E-3,-3.065878525E-2,3.243064880E-2,4.468021729E-2
8.475086855E0,1.683774590E-2,-1.611363143E-2,3.721809387E-2,4.391292881E-2
8.485096624E0,9.541049600E-3,-2.789057046E-2,3.242778778E-2,4.382324690E-2
8.495075778E0,1.433113217E-2,-1.348156855E-2,3.481960297E-2,3.999423447E-2
8.505085624E0,-1.436963677E-2,-1.340369880E-2,4.918479919E-2,5.296498914E-2
8.515095394E0,9.534984827E-3,-1.554374769E-2,3.721332550E-2,4.144098965E-2
8.525074548E0,-9.518802166E-3,-1.530465111E-2,4.200172424E-2,4.570541302E-2
8.535084394E0,-1.731514931E-5,-1.042154431E-2,4.439640045E-2,4.560317159E-2
8.545094163E0,-9.115040302E-5,-2.701576799E-2,3.960704803E-2,4.794349051E-2
8.555103778E0,1.478195190E-5,-2.688921615E-2,5.636405945E-2,6.244947847E-2
8.565083086E0,1.190510392E-2,-1.469390094E-2,4.678440094E-2,5.046208870E-2
8.575092932E0,-4.809647799E-3,-2.182466909E-2,3.481578827E-2,4.137134281E-2
8.585102548E0,-2.425551414E-3,-1.932002604E-2,3.481578827E-2,3.989092401E-2
8.595081932E0,9.585827589E-3,-3.109866008E-2,3.481674194E-2,4.765732125E-2
8.605091702E0,2.324968576E-3,-7.040321827E-3,3.481197357E-2,3.559276772E-2
8.615101548E0,-2.475932240E-3,-2.369429544E-2,3.720474243E-2,4.417853253E-2
8.625080702E0,1.653124392E-2,-2.351272851E-2,1.565551758E-2,3.272958384E-2
8.635090471E0,-1.214924455E-2,-1.377558708E-2,2.762603760E-2,3.317482322E-2
8.645100317E0,-2.578154206E-3,-4.065204412E-3,4.438591003E-2,4.464618433E-2
8.655079471E0,1.656012237E-2,-1.596704498E-2,3.002166748E-2,3.782174899E-2
8.665089240E0,4.570648074E-3,-1.828307658E-2,3.480529785E-2,3.957992511E-2
8.675099086E0,2.401582599E-1,9.107033610E-1,-5.852880478E-1,1.108881734E0
8.685078240E0,-4.521254301E-1,-2.148782492E0,-1.863801003E0,2.880180164E0
8.695088010E0,-3.691962242E0,-7.690415382E-1,-2.639556885E0,4.603180491E0
8.705097856E0,-3.428358078E0,-6.648441553E-1,-6.240844727E-1,3.547553846E0
8.715077010E0,-1.123918891E0,-2.515012980E0,-1.122472763E0,2.974630912E0
8.725086779E0,-9.750214219E-1,-1.542185664E0,3.007064342E0,3.517305696E0
8.735096625E0,4.939356446E-2,-1.241970181E0,7.631207466E0,7.731769335E0
8.745075779E0,2.079814196E0,-1.310933232E0,5.620846272E0,6.134988658E0
8.755085625E0,2.089433908E0,-8.141964674E-1,4.777602196E0,5.277701459E0
8.765095394E0,2.313439250E-1,1.241749287E0,-5.337649345E0,5.485067168E0
8.775074548E0,-9.514925480E-1,2.273599625E0,-6.339369774E0,6.801632337E0
8.785084394E0,-1.832928896E0,1.843943357E0,-1.475507736E0,2.989461243E0
8.795094164E0,-2.068237543E0,1.077942491E0,9.789578438E0,1.006356858E1
8.805104010E0,-6.372370720E-1,-1.082435846E0,-1.006732750E1,1.014538424E1
8.815083164E0,-4.094621181E0,1.635421395E0,-2.025726318E0,4.852225559E0
8.825092933E0,-1.123046756E0,8.924939632E-1,4.738037586E0,4.950432270E0
8.835102548E0,2.787099123E0,3.761408925E-1,-3.024228096E0,4.129813442E0
8.845081933E0,-2.807307243E-1,2.687613010E0,-6.389231682E0,6.937171968E0
8.855091702E0,4.221335411E0,8.748862147E-1,-2.345895767E-1,4.317421778E0
8.865101548E0,7.301506996E-1,1.745550990E0,2.045723915E0,2.786584763E0
8.875080702E0,1.184954643E0,1.684313178E0,2.439562798E0,3.192568720E0
8.885090472E0,-3.709152639E-1,1.763692141E0,-4.275804520E0,4.640117713E0
8.895100318E0,-2.140292645E0,1.991920352E0,-1.603407860E0,3.334593837E0
8.905079472E0,-1.728204489E0,1.508319974E0,1.340284348E0,2.656705108E0
8.915089241E0,-8.230956793E-1,7.952863574E-1,2.413215637E-1,1.169702092E0
8.925099087E0,-5.691429973E-1,8.446709514E-1,8.845214844E-1,1.348988889E0
8.935078241E0,-2.378535867E-1,-5.267906189E-1,-3.936876297E0,3.979080002E0
8.945088010E0,1.345651746E0,-1.913648009E0,-8.391466141E-1,2.485355983E0
8.955097856E0,7.148041725E-1,-1.485356569E0,3.452870369E0,3.826165565E0
8.965077010E0,5.319011807E-1,-1.570254683E0,2.242007732E0,2.788407666E0
8.975086779E0,-2.193658352E-1,-1.513992429E0,-5.874595642E-1,1.638719983E0
8.985096626E0,-8.344190717E-1,-1.660522819E0,-6.714019775E-1,1.975948338E0
8.995075779E0,-1.411429167E0,-1.544081450E0,4.753932953E-1,2.145301517E0
9.005085549E0,-9.072949886E-1,-1.775132298E0,3.687419891E-1,2.027375034E0
9.015095395E0,-3.517493904E-1,-1.714384437E0,2.900094986E-1,1.773963680E0
9.025074549E0,-1.042968631E-1,-1.611335516E0,1.220466614E0,2.024059964E0
9.035084318E0,1.919411123E-1,-1.042187095E0,-3.772665977E0,3.918673744E0
9.045094164E0,7.026249766E-1,-5.693168044E-1,-2.353363037E-1,9.344445716E-1
9.055104010E0,9.552296400E-1,-3.775176406E-2,1.123606682E0,1.475256193E0
9.065083164E0,6.913356781E-1,1.275655866E0,-3.423478127E0,3.718258381E0
9.075092934E0,5.044328570E-1,8.339437842E-1,-9.122276306E-2,9.788954669E-1
9.085102780E0,3.514842391E-1,9.324676394E-1,1.454325676E0,1.762980499E0
9.095081934E0,4.255855083E-1,9.068038464E-1,-3.925304413E-1,1.075870061E0
9.105091703E0,5.943455100E-1,6.918544769E-1,-2.996282578E-1,9.600449444E-1
9.115101549E0,3.106604815E-1,6.511831880E-1,7.656984329E-1,1.052066333E0
9.125080703E0,2.132506371E-1,6.088279486E-1,5.190658569E-1,8.279955731E-1
9.135090472E0,1.218628883E-1,5.655461550E-1,9.798908234E-2,5.867664588E-1
9.145100088E0,-1.624858379E-2,4.795058370E-1,1.701717377E-1,5.090660905E-1
9.155079472E0,-9.046059847E-2,4.651985765E-1,3.866004944E-2,4.754865243E-1
9.165089241E0,4.483938217E-3,6.052957773E-1,-7.638072968E-2,6.101123664E-1
9.175099088E0,1.627431512E-1,6.810945868E-1,-1.989374161E-1,7.279775168E-1
9.185078241E0,1.515224576E-1,1.181606054E-1,-3.976125717E-1,4.416069984E-1
9.195088011E0,-8.922469616E-2,-5.345098376E-1,-2.193870544E-1,5.846302187E-1
9.205097857E0,-4.117438793E-1,-9.993870258E-1,2.549839020E-1,1.110551322E0
9.215077011E0,-7.581961155E-1,-1.071338773E0,1.657371521E-1,1.322912287E0
9.225086857E0,-1.102684259E0,-8.533793688E-1,-2.188081741E-1,1.411398576E0
9.235096626E0,-1.317412853E0,-6.637997031E-1,7.444763184E-2,1.477074515E0
9.245075780E0,-1.438788652E0,-4.198989570E-1,9.694290161E-2,1.501940693E0
9.255085626E0,-1.394648075E0,4.694501311E-2,-1.827545166E-1,1.407354362E0
9.265095395E0,-1.245134950E0,4.061808884E-1,-4.340801239E-1,1.379771543E0
9.275074549E0,-1.053900719E0,7.555886507E-1,-1.236380577E0,1.791719248E0
9.285084319E0,-5.452570319E-1,9.566853642E-1,-1.354144096E0,1.745353360E0
9.295094165E0,-6.077184677E-1,1.254830718E0,-4.688539505E-1,1.470967673E0
9.305103780E0,-8.213061094E-1,1.322181225E0,-5.002622604E-1,1.634921786E0
9.315083088E0,-1.152757764E0,1.465337753E0,-8.281698227E-1,2.040080991E0
9.325092934E0,-1.154098868E0,8.628476858E-1,-3.061351776E-1,1.473149373E0
9.335102780E0,-9.540853500E-1,3.539431095E-2,3.137140274E-1,1.004961742E0
9.345081934E0,-8.487735987E-1,-2.606692314E-1,1.311295509E0,1.583622740E0
9.355091703E0,-5.925517082E-1,-5.699936152E-1,1.487452507E0,1.699566183E0
9.365101550E0,-5.587310195E-1,-7.413847446E-1,1.429087639E0,1.704148811E0
9.375080703E0,-2.583793700E-1,-1.127689362E0,5.499744415E-1,1.280982077E0
9.385090473E0,-1.852365881E-1,-5.912261009E-1,7.933025360E-1,1.006573301E0
9.395100088E0,1.011565030E-1,-1.341016144E-1,1.209091187E0,1.220703641E0
9.405079473E0,3.041529655E-1,6.864672899E-2,8.718338013E-1,9.259133744E-1
9.415089242E0,6.250383258E-1,1.967584193E-1,4.049711227E-1,7.703170740E-1
9.425099088E0,7.636618018E-1,3.039453030E-1,8.503303528E-1,1.182634265E0
9.435078242E0,8.345394731E-1,1.081015915E-1,1.729011536E0,1.922920429E0
9.445088088E0,7.178756595E-1,-9.066949040E-2,1.432060242E0,1.604482145E0
9.455097857E0,7.434175014E-1,-5.492617488E-1,1.386767387E0,1.666577882E0
9.465077011E0,7.476338744E-1,-1.012494206E0,1.703107834E0,2.117705650E0
9.475086858E0,7.856986523E-1,-1.373745561E0,1.909345627E0,2.479939507E0
9.485096627E0,9.207095504E-1,-1.657104254E0,1.857029915E0,2.653725813E0
9.495075781E0,1.026421189E0,-1.822990298E0,1.586834908E0,2.625810181E0
9.505085627E0,1.226744413E0,-1.835796118E0,1.297423363E0,2.560928860E0
9.515095396E0,1.257745862E0,-1.700146198E0,1.113205910E0,2.389905677E0
9.525074550E0,1.370152354E0,-1.310027719E0,5.145969391E-1,1.964255611E0
9.535084396E0,1.827380538E0,-1.178919196E0,-6.923942566E-1,2.282231344E0
9.545094165E0,6.956183434E0,1.389168978E0,-1.239343739E1,1.427990086E1
9.555103781E0,8.453049660E0,-1.484047771E0,-2.880352020E0,9.052782671E0
9.565083089E0,4.380461216E0,4.422106147E-1,2.889068604E0,5.265995451E0
9.575092935E0,1.541946769E0,-2.367267609E-1,6.068608284E0,6.265911418E0
9.585102550E0,1.267054081E0,-1.020247698E0,-4.785480499E-1,1.695682649E0
9.595081935E0,-3.564809084E0,-2.817578912E-1,-7.349167824E0,8.172974918E0
9.605091704E0,-2.728996992E0,-2.026968151E-1,2.131071568E0,3.468425667E0
9.615101550E0,-1.727130413E0,2.718321085E-1,2.363176823E0,2.939638899E0
9.625080704E0,-8.640977740E-1,7.714440227E-1,2.344229221E0,2.614804292E0
9.635090473E0,1.516917944E-1,1.055182695E0,7.026433945E-1,1.276764920E0
9.645100319E0,2.651770592E0,2.834645510E-1,-2.958132744E0,3.982811664E0
9.655079473E0,2.698496580E0,1.162137508E0,2.294423103E0,3.727844519E0
9.665089243E0,1.716414452E0,1.020837545E0,3.196547985E0,3.769098949E0
9.675099089E0,1.558069706E0,9.335436225E-1,-1.204044342E0,2.179175918E0
9.685078243E0,3.559741378E-1,1.052465439E0,-1.646554947E0,1.986339417E0
9.695088012E0,-9.031445980E-1,1.034174681E0,-4.437255859E-2,1.373738097E0
9.705097858E0,-7.791942954E-1,7.250173688E-1,2.933645248E-1,1.104018424E0
9.715077012E0,-4.084466696E-1,5.403047204E-1,1.234356880E0,1.407975419E0
9.725086781E0,2.448665500E-1,4.136435986E-1,1.112409592E0,1.211823318E0
9.735096627E0,4.968079925E-1,6.560531855E-1,-1.813276291E0,1.991279707E0
9.745075781E0,1.872773409E0,1.308650374E-1,-6.931133270E-1,2.001202634E0
9.755085551E0,1.006086111E0,4.210175276E-1,1.629052162E0,1.960427496E0
9.765095397E0,7.952618003E-1,4.960474372E-1,3.506526947E-1,1.000730585E0
9.775074551E0,5.405634046E-1,3.511959612E-1,-1.064299583E0,1.244299402E0
9.785084397E0,-1.843754202E-1,3.192327023E-1,-1.353321075E-1,3.927067520E-1
9.795094166E0,-1.656082869E-1,1.142349392E-1,-4.431533813E-2,2.060086775E-1
9.805104012E0,-4.127890244E-2,4.963302612E-2,-6.575298309E-2,9.214575332E-2
9.815083166E0,2.539781034E-1,2.815711498E-2,1.546077728E-1,2.986658058E-1
9.825092935E0,6.182626486E-1,2.849487960E-2,-6.761293411E-1,9.166305399E-1
9.835102551E0,1.272522330E0,-9.692089260E-2,-2.021150589E-1,1.292113477E0
9.845081935E0,1.385312200E0,-9.889638424E-2,5.376348495E-1,1.489268819E0
9.855091705E0,1.503309250E0,-1.883093566E-1,2.430162430E-1,1.534423673E0
9.865101551E0,1.464872241E0,-1.598513871E-1,4.417610168E-2,1.474230198E0
9.875080705E0,1.267702341E0,-1.451068968E-1,5.181512833E-1,1.377173188E0
9.885090474E0,1.303319335E0,-4.022513330E-2,3.792171478E-1,1.357963547E0
9.895100320E0,1.403178692E0,-1.479338408E-1,-1.452350616E-1,1.418410408E0
9.905079474E0,1.506205797E0,-2.037418336E-1,-2.292451859E-1,1.537114177E0
9.915089243E0,1.250762463E0,-2.908140421E-1,-4.025173187E-2,1.284756688E0
9.925099089E0,1.328454733E0,-3.751091361E-1,2.418994904E-2,1.380610008E0
9.935078243E0,8.320286274E-1,3.295201063E-2,-3.199930191E-1,8.920498888E-1
9.945088013E0,2.354537845E-1,2.853175998E-1,-5.828943253E-1,6.903697645E-1
9.955097859E0,2.077569962E-1,2.958167493E-1,-7.672595978E-1,8.481496383E-1
9.965077013E0,5.057936907E-2,3.551408052E-1,-5.613479614E-1,6.661792536E-1
9.975086782E0,-1.542343497E-1,4.439509511E-1,-4.674892426E-1,6.628928070E-1
9.985096628E0,-2.756071091E-1,5.729286075E-1,-3.289451599E-1,7.158291598E-1
9.995075782E0,-3.537758589E-1,5.458949208E-1,1.935482025E-1,6.786895679E-1
1.000508555E1,-4.672133327E-1,4.425536692E-1,4.466638565E-1,7.833585699E-1
1.001509540E1,-5.361202955E-1,3.459901512E-1,3.661193848E-1,7.356477145E-1
1.002507455E1,-6.623792648E-1,2.164490223E-1,4.979953766E-1,8.565021102E-1
1.003508432E1,-8.025814891E-1,8.730608225E-2,7.025585175E-1,1.070209264E0
1.004509417E1,-8.384352922E-1,-2.360613644E-2,6.419572830E-1,1.056238677E0
1.005510401E1,-9.281333089E-1,-1.258194000E-1,8.224191666E-1,1.246449055E0
1.006508317E1,-9.398465157E-1,-1.820554137E-1,1.033977509E0,1.409100825E0
1.007509294E1,-9.872143269E-1,-2.266252935E-1,9.486026764E-1,1.387731310E0
1.008510278E1,-1.033417583E0,-3.043486476E-1,7.724428177E-1,1.325612276E0
1.009508194E1,-1.102414727E0,-3.379652500E-1,8.693647385E-1,1.444068485E0
1.010509171E1,-1.165400386E0,-3.740567267E-1,8.802013397E-1,1.507591089E0
1.011510155E1,-1.274424791E0,-3.979244232E-1,8.241367340E-1,1.568981756E0
1.012508070E1,-1.343973279E0,-3.778439164E-1,7.921066284E-1,1.605136477E0
1.013509047E1,-1.334452510E0,-3.951759338E-1,6.858644485E-1,1.551559719E0
1.014510009E1,-1.276655555E0,-4.639084041E-1,5.148954391E-1,1.452645079E0
1.015507948E1,-6.961014867E-1,-1.027830601E0,-9.652261734E-1,1.572467675E0
1.016508924E1,-5.547456741E-1,6.805423498E-1,-3.307068825E0,3.421634823E0
1.017509909E1,-5.527794361E-3,2.437202632E-2,-2.280038834E0,2.280175790E0
1.018507824E1,-9.798025489E-1,6.538519263E-1,-1.062088013E-1,1.182715387E0
1.019508801E1,-1.772887468E0,8.876322955E-2,-2.711931229E0,3.241231228E0
1.020509786E1,-2.081044912E0,-1.299021393E-1,-8.900394440E-1,2.267111092E0
1.021507701E1,-1.462427855E0,-4.947230220E-1,1.440179825E0,2.111294396E0
1.022508686E1,-5.104888082E-1,-7.125403285E-1,1.692791939E0,1.906267843E0
1.023509663E1,6.500625610E-2,-5.501307845E-1,1.953680038E0,2.030698251E0
1.024507578E1,7.736858130E-1,4.174383581E-1,-2.195893288E0,2.365331235E0
1.025508563E1,8.071807027E-1,1.650332659E-1,3.284645081E-2,8.245335378E-1
1.026509540E1,6.974185109E-1,-2.031339407E-1,2.873825550E0,2.964208034E0
1.027507455E1,2.170572877E-1,-1.410153061E-1,-1.729717255E-1,3.113172024E-1
1.028508432E1,-1.450837255E-1,-3.341071606E-1,-9.822320938E-1,1.047595708E0
1.029509417E1,-3.661470413E-1,-2.114413381E-1,8.245620728E-1,9.266464844E-1
1.030510378E1,-1.100468636E-2,-2.301412225E-1,1.640157700E-1,2.828201870E-1
1.031508309E1,5.979726911E-1,-2.189874798E-1,8.178043365E-2,6.420396365E-1
1.032509294E1,1.394286990E0,-3.749186099E-1,-2.308855057E-1,1.462158778E0
1.033510278E1,1.210938931E0,-2.351269722E-1,6.244640350E-1,1.382610978E0
1.034508194E1,9.143929482E-1,-2.832176089E-1,1.099740028E0,1.457996848E0
1.035509171E1,4.110128284E-1,-4.335370958E-1,1.303644180E-1,6.114579626E-1
1.036510155E1,-1.600423157E-1,-1.971580386E-1,3.280048370E-1,4.148156315E-1
1.037508071E1,-8.803796172E-1,-4.531736672E-2,4.831352234E-1,1.005256971E0
1.038509048E1,-1.176601171E0,8.892046660E-2,4.896059036E-1,1.277501901E0
1.039512331E1,-8.741673231E-1,6.321686506E-2,2.132492065E-1,9.020200136E-1
1.040510269E1,-7.624455690E-1,1.733574569E-1,5.975723267E-3,7.819282338E-1
1.041511246E1,-4.896673262E-1,3.091365993E-1,1.752853394E-3,5.790877307E-1
1.042512231E1,9.177908897E-1,-4.164108634E-2,-5.767250061E-2,9.205434344E-1
1.043510146E1,4.609415829E-1,5.366689563E-1,-1.184687614E0,1.379842547E0
1.044511123E1,-4.020494223E-2,3.217001557E-1,2.298777580E0,2.321526608E0
1.045512108E1,1.771294713E0,5.892342925E-1,-5.646488190E0,5.947059012E0
1.046510023E1,-8.656343222E-1,5.317155123E-1,1.428473473E0,1.752877813E0
1.047511008E1,-2.459494323E-1,1.095555425E-1,2.349505901E0,2.364882982E0
1.048511985E1,-6.126233339E-1,4.205675125E-1,1.200894356E0,1.412208071E0
1.049509900E1,-5.057755709E-1,4.753100872E-1,5.544490814E-1,8.883368680E-1
1.050510885E1,-3.815740347E-1,1.252876043E0,-2.859693527E0,3.145336897E0
1.051511862E1,1.169824004E-1,5.667677522E-1,-1.719083786E-1,6.037077584E-1
1.052509777E1,6.254888773E-1,-2.944477089E-2,1.251594543E0,1.399497135E0
1.053510762E1,7.689101100E-1,-1.975363642E-1,1.782932281E-1,8.136533953E-1
1.054511739E1,6.423590183E-1,-3.181553781E-1,-2.407627106E-1,7.561842605E-1
1.055512700E1,-6.576167345E-1,-1.015172005E-1,-1.005486488E0,1.205723264E0
1.056510631E1,-8.504358530E-1,-1.975821406E-1,-3.161430359E-3,8.730921125E-1
1.057511616E1,-7.278581858E-1,-2.937202454E-1,7.806673050E-1,1.107018772E0
1.058512577E1,-3.091500103E-1,-4.172461927E-1,3.761768341E-1,6.412309449E-1
1.059510516E1,-3.488385677E-1,-2.828246951E-1,6.154870987E-1,7.619071618E-1
1.060511492E1,9.300678968E-2,5.141087621E-2,-1.127812386E0,1.132808068E0
1.061512477E1,2.904820740E-1,-1.095733792E-2,-4.866571426E-1,5.668642457E-1
1.062510392E1,6.890040636E-2,-5.425065756E-2,8.176622391E-1,8.223514681E-1
1.063511369E1,-1.324414313E-1,-3.012015522E-1,-3.244762421E-1,4.621124748E-1
1.064512354E1,-2.964304090E-1,-5.222058296E-1,-7.045373917E-1,9.257120784E-1
1.065510269E1,-5.226242542E-1,-4.978450239E-1,2.680778503E-1,7.699685141E-1
1.066511246E1,-3.189787567E-1,-5.805917978E-1,5.555830002E-1,8.645847286E-1
1.067512231E1,-1.576604694E-1,-5.802204609E-1,2.826004028E-1,6.643610423E-1
1.068510146E1,-1.442276835E-1,-4.965929389E-1,-8.385181427E-2,5.238676344E-1
1.069511123E1,2.473744750E-1,-5.863785744E-1,-1.295547485E-1,6.494754778E-1
1.070512108E1,1.699284017E-1,-4.255630374E-1,1.287755966E-1,4.759860447E-1
1.071510023E1,7.044395804E-2,-4.695812166E-1,2.292213440E-1,5.272677638E-1
1.072511008E1,-1.367220581E-1,-3.755967617E-1,-1.656961441E-1,4.326904907E-1
1.073511985E1,-1.859244406E-1,-1.754907668E-1,7.142162323E-2,2.654542430E-1
1.074509900E1,-1.503973007E-1,-1.069246531E-1,1.332168579E-1,2.275938504E-1
1.075510877E1,-7.971242070E-2,-4.545429349E-2,7.787322998E-2,1.203511643E-1
1.076511862E1,9.910508990E-3,-2.281513810E-2,-5.166149139E-2,5.733810607E-2
1.077509777E1,6.804464757E-2,-1.012197137E-2,1.752185822E-2,7.098974492E-2
1.078510762E1,2.830792964E-2,6.005793810E-3,9.159755707E-2,9.605998595E-2
1.079511739E1,-1.652678847E-2,4.099835455E-2,3.889751434E-2,5.888137596E-2
1.080512723E1,-5.019019544E-2,3.447847068E-2,1.499271393E-2,6.271046268E-2
1.081510639E1,-5.749206245E-2,3.219778836E-2,7.011127472E-2,9.621655607E-2
1.082511616E1,-1.387989521E-2,4.890286922E-2,4.618358612E-2,6.868089790E-2
1.083512577E1,1.457013190E-2,4.668258131E-2,2.701854706E-2,5.587086921E-2
1.084510516E1,6.982311606E-3,3.721280396E-2,6.291866302E-2,7.343230632E-2
1.085511492E1,-3.344856203E-2,3.472773731E-2,5.334949493E-2,7.190960054E-2
1.086512477E1,-4.270851612E-3,1.787692308E-2,3.660583496E-2,4.096109991E-2
1.087510393E1,-1.585556567E-2,1.084721088E-2,4.139614105E-2,4.563662390E-2
1.088511369E1,-8.129611611E-3,5.143406987E-2,5.817222595E-2,7.807408021E-2
1.089512354E1,2.334105968E-2,1.157398224E-1,3.903675079E-2,1.243558582E-1
1.090510269E1,-5.241534114E-2,1.889455169E-1,2.950668335E-2,1.982887307E-1
1.091511246E1,-1.789915562E-2,1.111616492E-1,6.308460236E-2,1.290618421E-1
1.092512231E1,-2.879753709E-2,1.045225263E-1,-1.211967468E-1,1.626127550E-1
1.093510146E1,4.823181033E-2,3.436432779E-2,1.565589905E-1,1.673855790E-1
1.094511123E1,8.581417799E-2,1.494723260E-1,2.971076965E-2,1.748964815E-1
1.095512108E1,9.547352791E-3,2.021408975E-1,-3.246593475E-2,2.049539736E-1
1.096510023E1,9.984776378E-3,2.364265174E-1,1.448173523E-1,2.774333423E-1
1.097511000E1,-1.616597176E-2,2.050116807E-1,7.073307037E-2,2.174725158E-1
1.098511985E1,-3.929385543E-2,1.546816975E-1,-7.277774811E-2,1.754053455E-1
1.099509900E1,-7.120266557E-3,1.974950433E-1,1.165170670E-1,2.294149455E-1
1.100510877E1,-6.755605340E-3,3.329783380E-1,1.856040955E-2,3.335636380E-1
1.101511862E1,-6.055212021E-2,4.336348772E-1,-7.450962067E-2,4.441367465E-1
1.102509777E1,-2.583168447E-2,4.091107249E-1,9.343624115E-2,4.204392850E-1
1.103510754E1,-1.579616964E-2,4.219793379E-1,6.029415131E-2,4.265576928E-1
1.104511739E1,-3.413166106E-2,4.023098946E-1,-1.834201813E-2,4.041715616E-1
1.105512723E1,-3.751146793E-2,3.699139357E-1,4.905986786E-2,3.750337327E-1
1.106510639E1,-1.023621857E-2,3.564698100E-1,6.852054596E-2,3.631398778E-1
1.107511616E1,7.129341364E-3,3.338569105E-1,1.131248474E-2,3.341245823E-1
1.108512600E1,-4.212960601E-3,3.028844595E-1,4.503631592E-2,3.062433911E-1
1.109510516E1,-2.737395465E-2,2.991481423E-1,3.801727295E-2,3.027940843E-1
1.110511493E1,1.255845904E0,1.717637062E0,1.144981384E-2,2.127805703E0
1.111512477E1,-1.617375374E0,3.841235638E0,-1.286211014E0,4.361803881E0
1.112510393E1,-8.074076772E-1,5.386199951E0,-3.839406967E-1,5.459896293E0
1.113511370E1,1.000803709E0,2.956248999E0,1.217411995E0,3.350090771E0
1.114512331E1,-2.076005220E0,-4.272837639E-1,8.341207504E-1,2.277745929E0
1.115510270E1,1.854234636E-1,-4.256638050E0,-2.621097565E-1,4.268729422E0
1.116511246E1,-1.428139210E-1,-5.317800045E0,8.756961823E-1,5.391311245E0
1.117512231E1,-3.732635081E-1,-2.578221560E0,-1.178075790E0,2.859093322E0
1.118510146E1,-7.780109644E-1,-2.678441703E-1,2.545220852E0,2.674918830E0
1.119511123E1,-3.630546927E-1,-3.408022523E-1,-5.455780029E-1,7.386543457E-1
1.120512108E1,-3.973450363E-1,-1.280502319E0,-1.977281570E0,2.388977119E0
1.121510023E1,1.993587464E-1,-1.275126219E0,1.053399086E0,1.665935298E0
1.122511008E1,5.470953584E-1,-6.283482909E-1,1.059868813E0,1.348130856E0
1.123511985E1,1.617677510E-1,-1.691950560E-1,-6.694393158E-1,7.091859909E-1
1.124509900E1,5.347385406E-1,-4.239829779E-1,7.956314087E-2,6.870496094E-1
1.125510885E1,-4.717218876E-2,2.493641376E-1,4.361371994E-1,5.046021653E-1
1.126511862E1,-1.233217865E-1,8.308486938E-1,-3.252115250E-1,9.007110253E-1
1.127509777E1,-2.439059168E-1,6.018294692E-1,-3.992614746E-1,7.622981906E-1
1.128510754E1,-2.891715169E-1,1.036103666E-1,1.873283386E-1,3.597876884E-1
1.129511739E1,-1.020821035E-1,-1.460174322E-1,1.057243347E-1,2.071701748E-1
1.130512700E1,-4.601517320E-2,-1.156966835E-1,-7.178401947E-2,1.437221771E-1
1.131510631E1,5.418509245E-2,2.370382249E-1,-2.589349747E-1,3.552048218E-1
1.132511616E1,1.015504003E-1,4.597442746E-1,2.509479523E-1,5.335280279E-1
1.133512600E1,3.754115105E-2,6.234939098E-1,5.719566345E-2,6.272362693E-1
1.134510516E1,-1.690143347E-2,5.461832881E-1,-2.729940414E-1,6.108417056E-1
1.135511493E1,-7.732954621E-2,3.642319143E-1,5.504512787E-2,3.763970141E-1
1.136512477E1,-9.655149281E-2,1.568301618E-1,-1.453018188E-2,1.847404033E-1
1.137510393E1,-5.336984992E-2,-5.624555796E-2,-1.583881378E-1,1.763482517E-1
1.138511370E1,4.195362329E-3,-1.337167025E-1,1.621055603E-1,2.101808037E-1
1.139512331E1,9.265992045E-2,-1.937241256E-1,3.411293030E-1,4.030931642E-1
1.140510270E1,2.509321570E-1,-4.587263763E-1,2.687625885E-1,5.879031933E-1
1.141511246E1,2.888958454E-1,-6.102921367E-1,1.510047913E-1,6.918957642E-1
1.142512231E1,2.138708532E-1,-9.519851804E-1,8.365726471E-2,9.792931448E-1
1.143510146E1,1.591320336E-1,-1.084648848E0,2.248535156E-1,1.119082316E0
1.144511123E1,1.632860303E-2,-1.098645806E0,2.273702621E-1,1.122045662E0
1.145512108E1,-7.030645013E-2,-1.131802559E0,3.603839874E-2,1.134556651E0
1.146510023E1,-8.184963465E-2,-1.288936496E0,1.320037842E-1,1.298261011E0
1.147511008E1,5.279451609E-3,-1.039234638E0,1.868104935E-1,1.055904667E0
1.148511985E1,3.790065646E-2,-6.994267702E-1,2.347078323E-1,7.387300137E-1
1.149509900E1,5.210566521E-2,-4.294876456E-1,-5.070495605E-2,4.355980150E-1
1.150510885E1,5.747872591E-2,-1.933640838E-1,-1.436424255E-1,2.476421193E-1
1.151511862E1,-3.956767917E-2,1.983516812E-1,-1.560974121E-2,2.028611710E-1
1.152509777E1,-2.898412943E-2,7.173739672E-1,-1.353387833E-1,7.306039110E-1
1.153510762E1,6.758904457E-2,9.191606045E-1,-7.602500916E-2,9.247725654E-1
1.154511739E1,-6.857395172E-3,6.193187237E-1,3.950214386E-2,6.206151180E-1
1.155512700E1,1.107013524E-1,3.465584815E-1,-1.657342911E-1,3.997817226E-1
1.156510631E1,1.538747549E-1,5.344438553E-2,2.624654770E-1,3.089043042E-1
1.157511616E1,1.398978531E-1,-4.418855906E-2,1.185083389E-1,1.885955049E-1
1.158512577E1,6.589359045E-2,1.842920780E-1,-5.400238037E-1,5.743964170E-1
1.159510516E1,-8.929103613E-3,7.468640208E-1,1.856956482E-1,7.696547721E-1
1.160511493E1,-6.722462177E-2,1.063563704E0,-2.349853516E-3,1.065688709E0
1.161512477E1,-1.203904748E-1,1.273423553E0,-3.960866928E-1,1.339024301E0
1.162510393E1,-5.933964252E-2,1.364122868E0,1.535263062E-1,1.374017001E0
1.163511370E1,-5.321711302E-3,1.419760227E0,2.484073639E-1,1.441337449E0
1.164512354E1,2.194398642E-1,1.634668112E0,-5.667896271E-1,1.744002343E0
1.165510270E1,2.502444983E-1,1.900785685E0,1.768798828E-1,1.925329847E0
1.166511246E1,5.764436722E-2,2.172161579E0,5.213584900E-1,2.234596938E0
1.167512231E1,2.924805880E-2,2.029449701E0,-2.403297424E-1,2.043839505E0
1.168510146E1,-4.087725282E-2,1.655981660E0,-1.580715179E-2,1.656561521E0
1.169511124E1,-3.361171484E-2,1.181129217E0,3.472223282E-1,1.231567830E0
1.170512108E1,-1.061239839E-2,9.094960093E-1,-4.227647781E-1,1.003008311E0
1.171510024E1,4.823812842E-2,9.101346135E-1,-1.276626587E-1,9.203095600E-1
1.172511000E1,-1.661878824E-2,1.284242868E0,4.927959442E-1,1.375646674E0
1.173511985E1,-2.205163240E-2,1.264173746E0,1.433067322E-1,1.272461534E0
1.174509900E1,-8.505663276E-2,1.070979714E0,-4.482479095E-1,1.164112696E0
1.175510877E1,-4.255387187E-2,1.026407957E0,-1.007080078E-3,1.027290193E0
1.176511862E1,-1.146496832E-1,4.559029639E-1,-3.225135803E-1,5.700939149E-1
1.177509777E1,1.247847080E-1,-5.487348437E-1,-5.554618835E-1,7.907079462E-1
1.178510762E1,2.923775315E-1,-1.119320154E0,6.437740326E-1,1.323936265E0
1.179511739E1,3.336823583E-1,-1.312722445E0,4.641656876E-1,1.431793951E0
1.180512724E1,1.522825956E-1,-6.591056585E-1,-3.566417694E-1,7.647245319E-1
1.181510639E1,2.652454376E-2,-1.654824913E-1,2.640113831E-1,3.127139535E-1
1.182511616E1,2.270489931E-2,3.098044097E-1,-3.101320267E-1,4.389489250E-1
1.183512577E1,-3.892612457E-2,1.328833461E0,-6.772232056E-2,1.331127313E0
1.184510516E1,-1.224585474E-1,2.508854151E0,7.322483063E-1,2.616396917E0
1.185511493E1,-2.853792906E-2,3.084021568E0,1.648883820E-1,3.088558179E0
1.186512477E1,-9.858289361E-1,-1.008991241E0,-5.149583817E-1,1.501700420E0
1.187510393E1,6.420519948E-1,-1.810757756E0,-1.115615845E0,2.221637488E0
1.188511370E1,-1.243549585E-2,-1.611440182E0,-8.571805954E-1,1.825281533E0
1.189512354E1,7.241644263E-1,-1.498492956E0,1.652324677E0,2.345223250E0
1.190510270E1,-3.006487787E-1,-1.764229059E0,3.815374374E-1,1.829881056E0
1.191511247E1,-4.542786181E-1,-1.476160765E0,-4.312191010E-1,1.603549057E0
1.192512231E1,-7.559455633E-1,-8.597217798E-1,2.286930084E-1,1.167422685E0
1.193510147E1,-2.593562603E-1,-3.134262562E-1,8.568248749E-1,9.484991060E-1
1.194511124E1,1.271282434E-1,-8.484486341E-1,8.376502991E-2,8.619995680E-1
1.195512108E1,4.545823932E-1,-2.032237053E0,-1.038903236E0,2.327219914E0
1.196510024E1,7.059997320E-1,-2.231333256E0,-6.431484222E-2,2.341243285E0
1.197511001E1,2.315514386E-1,-2.040581465E0,1.073027611E0,2.317105314E0
1.198511985E1,1.503621042E-1,-2.087476969E0,-1.091785431E-1,2.095731092E0
1.199509900E1,-2.479969412E-1,-2.077261925E0,-4.363164902E-1,2.137028700E0
1.200510885E1,-3.540564775E-1,-1.980167866E0,1.869888306E-1,2.020243943E0
1.201511862E1,-1.961104274E-1,-1.794419408E0,3.335266113E-1,1.835658005E0
1.202509777E1,-9.496362507E-2,-8.041276932E-1,5.179729462E-1,9.612155898E-1
1.203510754E1,-6.188809872E-3,-1.818085909E-1,1.958541870E-1,2.673041856E-1
1.204511739E1,5.287930369E-2,6.043457985E-2,-4.948921204E-1,5.013649070E-1
1.205512724E1,3.226543963E-1,4.088606834E-1,-2.190399170E-2,5.212990531E-1
1.206510639E1,2.215340137E-1,8.865695000E-1,4.616928101E-1,1.023837413E0
1.207511616E1,1.402646005E-1,1.188838482E0,-1.103248596E-1,1.202157506E0
1.208512601E1,1.385539770E-2,1.010314465E0,-3.180952072E-1,1.059297810E0
1.209510516E1,-1.003315002E-1,7.768260837E-1,7.705497742E-2,7.870594919E-1
1.210511493E1,-2.102391720E-1,6.174139380E-1,3.877449036E-2,6.533788652E-1
1.211512477E1,-1.771103740E-1,5.032213926E-1,-8.266258240E-2,5.398453085E-1
1.212510393E1,-7.985721529E-2,3.427088857E-1,7.158565521E-2,3.590975650E-1
1.213511370E1,-3.873479366E-2,2.582266331E-1,9.192466736E-3,2.612773999E-1
1.214512331E1,4.957696795E-2,2.343764007E-1,2.750015259E-2,2.411357115E-1
1.215510270E1,4.702448845E-2,1.391104460E-1,2.247562408E-1,2.684741822E-1
1.216511247E1,6.868544221E-2,-2.288917601E-1,5.488967896E-2,2.451978888E-1
1.217512231E1,-6.454926729E-2,-5.401029587E-1,7.026672363E-3,5.439919007E-1
1.218510147E1,-1.770179719E-1,-6.774336696E-1,2.296886444E-1,7.368911808E-1
1.219511124E1,-1.486917287E-1,-4.037717879E-1,8.594894409E-2,4.387802501E-1
1.220512108E1,-2.495742142E-1,-1.014257967E-1,-3.617849350E-1,4.510685312E-1
1.221510024E1,-2.029622793E-1,2.849645615E-1,-3.281440735E-1,4.796634456E-1
1.222511008E1,3.339129686E-1,1.848284602E-1,9.216051102E-1,9.975045912E-1
1.223511985E1,4.413595200E-1,3.880459368E-1,1.332966805E0,1.456769843E0
1.224509900E1,3.642643094E-1,8.617846966E-1,-2.484324455E0,2.654661815E0
1.225510885E1,1.720531285E-1,5.964291096E-1,1.015381813E0,1.190096714E0
1.226511862E1,6.650779247E-1,2.124812305E-1,6.374835968E-1,9.454428885E-1
1.227509778E1,-1.003256440E0,7.052170038E-1,-1.868190765E0,2.234723975E0
1.228510754E1,-8.097886443E-1,5.748962760E-1,5.340843201E-1,1.127612273E0
1.229511739E1,-3.067455292E-1,2.884076238E-1,9.752645493E-1,1.062267724E0
1.230512701E1,-5.987152457E-2,2.546739876E-1,7.812404633E-1,8.238811206E-1
1.231510631E1,9.392470121E-2,4.650523663E-1,-3.519916534E-1,5.907568679E-1
1.232511616E1,6.416038275E-1,2.261031419E-1,-5.804681778E-1,8.942714396E-1
1.233512601E1,3.116371036E-1,3.269841075E-1,9.133224487E-1,1.018918145E0
1.234510516E1,2.482546866E-1,3.042097092E-1,5.709285736E-1,6.929165698E-1
1.235511493E1,-2.112400830E-1,6.702624559E-1,-1.353762627E0,1.525302390E0
1.236512478E1,-8.358663321E-2,5.684987903E-1,-3.335294724E-1,6.643940914E-1
1.237510393E1,1.972481370E0,-3.322850943E0,2.161575794E0,4.427689133E0
1.238511370E1,3.017560482E0,1.682975411E0,-1.889276505E0,3.937949112E0
1.239512331E1,-2.230847120E0,4.332896233E0,-3.393050194E0,5.938304325E0
1.240510270E1,-1.175499320E0,1.879599214E0,2.103736401E0,3.056206586E0
1.241511247E1,-1.662762761E-1,-1.751522303E0,-7.357969284E-1,1.907059332E0
1.242512231E1,1.220736504E-1,-3.320824623E0,-6.057739258E-3,3.323073103E0
1.243510147E1,1.017075896E0,-9.683473110E-1,-1.084095955E0,1.774092425E0
1.244511124E1,1.634496152E-1,1.800306797E0,5.387182236E-1,1.886276137E0
1.245512108E1,9.079922438E-1,2.642984390E0,-3.234148026E-1,2.813256749E0
1.246510024E1,2.965792120E-1,3.647180080E0,2.684431076E-1,3.669052121E0
1.247511008E1,-4.259620607E-1,3.361309767E0,8.603763580E-1,3.495725176E0
1.248511985E1,-2.776255012E-1,2.627528906E0,-1.394987106E-1,2.645835210E0
1.249509901E1,-1.016150117E-1,2.120184183E0,-2.565536499E-1,2.138066032E0
1.250510885E1,2.284840643E-1,1.678860426E0,2.310295105E-1,1.710015185E0
1.251511862E1,4.619300961E-1,1.505795240E0,-1.139926910E-1,1.579174801E0
1.252509778E1,2.624032199E-1,1.310671806E0,-1.858406067E-1,1.349537982E0
1.253510762E1,1.285012066E-1,7.532533407E-1,1.072015762E-1,7.716186450E-1
1.254511739E1,-3.909835219E-1,3.024656475E-1,-7.630872726E-1,9.092061196E-1
1.255512701E1,-5.440618396E-1,4.202736020E-1,-3.453073502E-1,7.693311068E-1
1.256510631E1,-6.038773060E-1,2.933804691E-1,7.904844284E-1,1.037114040E0
1.257511616E1,-1.772431433E-1,3.221611083E-1,8.290052414E-1,9.068917255E-1
1.258512578E1,7.953286171E-3,4.056121111E-1,6.393384933E-1,7.571909591E-1
1.259510516E1,5.212324858E-1,7.883092761E-2,-1.238929749E0,1.346419155E0
1.260511493E1,3.115154803E-1,-3.896535337E-1,-1.004505157E-1,5.088831662E-1
1.261512478E1,2.642929554E-1,-7.243092656E-1,9.240751266E-1,1.203490556E0
1.262510393E1,-9.451916814E-2,-7.795679569E-1,-4.760541916E-1,9.183069563E-1
1.263511370E1,-5.108246803E-1,-7.521113753E-1,-4.944162369E-1,1.034920669E0
1.264512354E1,-3.922622800E-1,-7.885869741E-1,2.892484665E-1,9.270403376E-1
1.265510270E1,-1.895122528E-1,-8.571774960E-1,5.625543594E-1,1.042657931E0
1.266511247E1,1.480349898E-2,-8.593623042E-1,6.531295776E-1,1.079491065E0
1.267512231E1,8.501675725E-2,-7.502335906E-1,2.500991821E-1,7.953790860E-1
1.268510147E1,2.221987545E-1,-5.489486456E-1,-9.862728119E-1,1.150413387E0
1.269511124E1,1.951582134E-1,-6.428411007E-1,2.388105392E-1,7.129950088E-1
1.270512108E1,3.683590889E-2,-5.760716796E-1,5.546560287E-1,8.005365541E-1
1.271510024E1,-7.104578614E-2,-5.179326534E-1,-3.431043625E-1,6.253177918E-1
1.272511001E1,-2.446258515E-1,-4.892241657E-1,3.771018982E-2,5.482737910E-1
1.273511985E1,-1.775098592E-1,-4.883321822E-1,2.939424515E-1,5.969759083E-1
1.274509901E1,-2.623200417E-4,-2.175946832E-1,3.097457886E-1,3.785366145E-1
1.275510878E1,-2.433907986E-2,2.133553922E-1,3.378343582E-1,4.003060926E-1
1.276511862E1,-3.251680732E-2,5.513593554E-1,-2.421245575E-1,6.030578604E-1
1.277509778E1,6.855374575E-2,7.498283386E-1,-5.167875290E-1,9.132423028E-1
1.278510762E1,-4.269921780E-2,9.046244621E-1,1.514673233E-1,9.182107551E-1
1.279511739E1,-4.900375009E-2,9.734888673E-1,7.974433899E-2,9.779780682E-1
1.280512724E1,2.703654766E-2,9.071120024E-1,3.224086761E-2,9.080873489E-1
1.281510639E1,-1.493692398E-2,8.166465759E-1,2.481079102E-1,8.536347443E-1
1.282511616E1,3.899085522E-2,5.651779175E-1,-1.819067001E-1,5.950095905E-1
1.283512578E1,4.805973172E-2,4.583660364E-1,-2.208375931E-1,5.110561649E-1
1.284510516E1,3.821548820E-2,4.462430477E-1,3.123607635E-1,5.460426062E-1
1.285511493E1,1.393180192E-1,4.429625273E-1,2.706527710E-3,4.643626130E-1
1.286512478E1,1.332302392E-1,5.086740851E-1,-1.441717148E-1,5.452385761E-1
1.287510393E1,-3.473669291E-3,6.155073047E-1,2.213201523E-1,6.540977895E-1
1.288511378E1,1.280331612E-2,5.142997503E-1,-1.027832031E-1,5.246261001E-1
1.289512354E1,3.115576506E-2,3.248810470E-1,-7.502365112E-2,3.348834493E-1
1.290510270E1,1.195544004E-1,2.591902316E-1,6.031417847E-2,2.917372635E-1
1.291511247E1,1.572736502E-1,1.416416019E-1,-5.342674255E-2,2.182928337E-1
1.292512232E1,1.626517773E-1,-1.147886291E-1,8.902740479E-2,2.180777587E-1
1.293510147E1,1.341693997E-1,-4.865174294E-1,2.004442215E-1,5.430271842E-1
1.294511124E1,1.178469658E-1,-9.831270576E-1,1.994600296E-1,1.010054960E0
1.295512108E1,1.340236068E-1,-1.370885372E0,-1.453971863E-2,1.377497889E0
1.296510024E1,1.508218050E-1,-1.398227334E0,3.691673279E-3,1.406342961E0
1.297511001E1,1.015544534E-1,-1.090007663E0,3.139905930E-1,1.138867905E0
1.298511985E1,1.059623957E-1,-5.863118172E-1,1.286783218E-1,6.095471161E-1
1.299509901E1,4.344350100E-2,-2.465569079E-1,9.307861328E-4,2.503567714E-1
1.300510878E1,-3.061234951E-3,-3.803937137E-2,-1.411170959E-1,1.461861816E-1
1.301511862E1,7.621318102E-2,-1.903595030E-2,8.866310120E-3,7.905332264E-2
1.302509778E1,1.611579061E-1,1.661809534E-1,1.253128052E-1,2.632323671E-1
1.303510755E1,2.282909155E-1,4.919673800E-1,2.493858337E-3,5.423604562E-1
1.304511739E1,9.107345343E-2,6.699273586E-1,-4.802227020E-2,6.777928726E-1
1.305512724E1,5.733835697E-2,7.341225743E-1,1.291742325E-1,7.476025840E-1
1.306510639E1,2.196913958E-2,9.060978293E-1,2.251176834E-1,9.339025061E-1
1.307511616E1,-1.787215471E-2,9.077388048E-1,-2.120971680E-2,9.081624325E-1
1.308512601E1,5.877202749E-2,9.068868160E-1,-2.125377655E-1,9.333113897E-1
1.309510516E1,4.105347395E-2,1.035460353E0,2.520656586E-1,1.066489862E0
1.310511493E1,8.493196964E-2,8.782743812E-1,-1.365852356E-2,8.824771291E-1
1.311512478E1,5.384773016E-2,6.705538034E-1,-1.500568390E-1,6.892452657E-1
1.312510393E1,-4.843473434E-3,3.831806183E-1,5.832004547E-2,3.876236231E-1
1.313511370E1,3.450906277E-2,-1.215844601E-2,-1.355752945E-1,1.404256519E-1
1.314512332E1,2.339506149E-2,-4.303144217E-1,-1.978387833E-1,4.741919596E-1
1.315510270E1,-3.095358610E-2,-8.814255595E-1,2.237577438E-1,9.099102535E-1
1.316511247E1,1.027101278E-1,-1.323260307E0,-4.679012299E-2,1.328064956E0
1.317512232E1,8.768075705E-2,-1.447246790E0,8.477210999E-2,1.452376500E0
1.318510147E1,2.538961172E-2,-1.283244014E0,3.502922058E-1,1.330437695E0
1.319511124E1,5.243599415E-2,-9.701821804E-1,5.056095123E-2,9.729128463E-1
1.320512108E1,-2.147990465E-2,-6.341835260E-1,1.002693176E-1,6.424204753E-1
1.321510024E1,-7.304280996E-2,-3.000560701E-1,8.525276184E-2,3.203699903E-1
1.322511008E1,-3.802418709E-3,1.461559534E-2,-4.954814911E-2,5.179858198E-2
1.323511985E1,-5.951601267E-2,2.665935755E-1,1.657075882E-1,3.194891157E-1
1.324509901E1,5.765777826E-2,4.537806511E-1,-2.391605377E-1,5.161773547E-1
1.325510885E1,3.114658594E-2,5.515056849E-1,-1.434326172E-2,5.525706827E-1
1.326511862E1,3.337913752E-2,4.884449840E-1,9.322834015E-2,4.983815733E-1
1.327509778E1,-1.562929153E-2,4.089756012E-1,-1.557846069E-1,4.379202677E-1
1.328510762E1,-3.457665443E-2,4.024721980E-1,1.507854462E-1,4.311793896E-1
1.329511739E1,2.767801285E-3,2.246833742E-1,1.484413147E-1,2.693048519E-1
1.330512701E1,1.134532690E-2,2.034721822E-1,-1.220798492E-1,2.375565931E-1
1.331510632E1,4.106819630E-2,1.186701953E-1,1.484365463E-1,1.944289595E-1
1.332511616E1,2.515059710E-2,1.206174418E-1,1.269359589E-1,1.769006994E-1
1.333512601E1,2.457326651E-2,5.088624358E-2,-2.622985840E-2,6.229976472E-2
1.334510516E1,1.334673166E-2,-6.163814664E-2,-1.625986099E-1,1.744009871E-1
1.335511493E1,3.169059753E-3,-2.901881933E-2,-1.169595718E-1,1.205474025E-1
1.336512478E1,2.031320333E-2,-3.948464990E-2,-1.765909195E-1,1.820879366E-1
1.337510393E1,7.624208927E-3,2.161645889E-2,-1.107406616E-2,2.545652761E-2
1.338511370E1,7.631301880E-3,9.399177134E-2,1.545114517E-1,1.810151335E-1
1.339512332E1,-5.915820599E-2,1.584836096E-1,-1.323795319E-1,2.148047678E-1
1.340510270E1,-4.429268837E-2,1.565996259E-1,-1.080207825E-1,1.953299120E-1
1.341511247E1,-1.640915871E-2,3.043321967E-1,1.652536392E-1,3.466931088E-1
1.342512232E1,-7.555603981E-3,3.022385240E-1,4.813957214E-2,3.061415211E-1
1.343510147E1,6.581687927E-2,2.218241096E-1,-2.126522064E-1,3.142590620E-1
1.344511124E1,-3.804808855E-2,4.476128817E-1,4.770975113E-1,6.553067863E-1
1.345512108E1,-3.271692991E-2,3.118685186E-1,-5.902099609E-2,3.190859577E-1
1.346510024E1,6.461852789E-2,1.680917740E-1,-4.634494781E-1,4.972080223E-1
1.347511008E1,-2.546393871E-2,1.180574298E-3,5.829439163E-1,5.835009987E-1
1.348511985E1,1.238150001E-1,-3.309652805E-1,4.322290421E-1,5.582921421E-1
1.349509901E1,9.267538786E-2,-4.945783615E-1,-2.785034180E-1,5.751179331E-1
1.350510885E1,5.706065893E-2,-6.833119392E-1,2.032089233E-1,7.151678066E-1
1.351511862E1,3.530800343E-3,-6.197730303E-1,3.785209656E-1,7.262294383E-1
1.352509778E1,-5.273842812E-2,-5.008472800E-1,9.663200378E-2,5.128031629E-1
1.353510762E1,-6.707930565E-2,-3.295678198E-1,-8.058547974E-3,3.364216422E-1
1.354511739E1,-7.660043240E-2,-1.052282453E-1,1.640033722E-2,1.311852923E-1
1.355512701E1,-1.885080338E-2,6.388533860E-2,5.054473877E-5,6.660849669E-2
1.356510632E1,4.068470001E-2,2.114441693E-1,4.355335236E-2,2.196833540E-1
1.357511616E1,-3.989636898E-3,2.902234495E-1,1.302499771E-1,3.181361727E-1
1.358512578E1,-6.053447723E-3,2.222057283E-1,-8.029937744E-4,2.222896190E-1
1.359510516E1,-5.002385378E-2,1.447988749E-1,-5.518245697E-2,1.628318263E-1
1.360511493E1,-6.343662739E-2,1.029702500E-1,1.106672287E-1,1.639338695E-1
1.361512478E1,-4.730159044E-2,1.135225147E-1,2.381143570E-1,2.679985985E-1
1.362510393E1,-7.392436266E-2,1.074551493E-1,1.505851746E-3,1.304365290E-1
1.363511370E1,-1.167058945E-2,1.356933862E-1,-2.693939209E-2,1.388330961E-1
1.364512355E1,-4.188585281E-2,1.918929964E-1,2.833461761E-2,1.984444439E-1
1.365510270E1,-5.143469572E-2,1.638552099E-1,-1.938343048E-2,1.728287451E-1
1.366511247E1,-1.623612642E-2,1.976724416E-1,-8.629035950E-2,2.162961676E-1
1.367512232E1,1.064968109E-2,1.811064333E-1,9.573554993E-2,2.051298403E-1
1.368510147E1,-1.248621941E-2,1.422543377E-1,1.006183624E-1,1.746890298E-1
1.369511124E1,-1.060020924E-2,3.984118998E-2,-1.177215576E-2,4.287503360E-2
1.370512109E1,-2.531850338E-2,1.669107378E-2,1.415977478E-1,1.448086349E-1
1.371510024E1,-3.079932928E-2,-3.264789283E-2,9.861946106E-2,1.083525805E-1
1.372511001E1,9.066045284E-3,-5.024041235E-2,-7.366180420E-2,8.962339878E-2
1.373511986E1,2.946418524E-2,-7.568597794E-3,1.738929749E-2,3.504011346E-2
1.374509901E1,1.208847761E-2,-1.292368770E-2,1.252384186E-1,1.264824671E-1
1.375510878E1,-1.692235470E-3,-6.148318946E-2,5.597782135E-2,8.316587480E-2
1.376511862E1,1.013720036E-2,-1.397089660E-2,-3.713321686E-2,4.094904855E-2
1.377509778E1,2.984505892E-2,7.436276972E-2,1.499052048E-1,1.699768204E-1
1.378510762E1,-2.507734299E-2,2.093852460E-1,1.047019958E-1,2.354433315E-1
1.379511739E1,-6.375446916E-2,3.207291961E-1,-1.536207199E-1,3.612909840E-1
1.380512724E1,-3.905698657E-2,3.852603436E-1,3.572559357E-2,3.888795425E-1
1.381510639E1,-1.121467352E-2,3.780364990E-1,1.100931168E-1,3.939008224E-1
1.382511616E1,-2.252995968E-3,4.500488937E-1,-5.251693726E-2,4.531082778E-1
1.383512578E1,5.240005255E-2,4.199697375E-1,8.656406403E-2,4.319880590E-1
1.384510516E1,-4.063561559E-2,3.620222509E-1,7.725715637E-2,3.723976794E-1
1.385511493E1,-1.565337181E-3,2.639364004E-1,-2.542114258E-2,2.651624186E-1
1.386512478E1,-3.673183918E-2,1.416413784E-1,5.940437317E-3,1.464472495E-1
1.387510393E1,-2.226853371E-2,-1.656123251E-2,3.724002838E-2,4.644331738E-2
1.388511370E1,1.341044903E-3,-1.269977689E-1,-5.119037628E-2,1.369331455E-1
1.389512355E1,-1.572781801E-2,-2.145460546E-1,8.539676666E-2,2.314518990E-1
1.390510270E1,-2.014815807E-3,-3.228161931E-1,8.548927307E-2,3.339502505E-1
1.391511247E1,-1.680052280E-2,-4.131432474E-1,2.572631836E-2,4.142842549E-1
1.392512232E1,6.455481052E-3,-4.284954071E-1,1.287240982E-1,4.474593620E-1
1.393510147E1,1.253655553E-2,-4.327180982E-1,8.561801910E-2,4.412851265E-1
1.394511124E1,2.197563648E-3,-3.878421187E-1,8.318042755E-2,3.966677727E-1
1.395512109E1,9.020924568E-3,-3.062511086E-1,1.310167313E-1,3.332214016E-1
1.396510024E1,-2.687025070E-2,-1.358863115E-1,1.368808746E-2,1.391921829E-1
1.397511001E1,-2.891463041E-2,-1.418858767E-2,6.879425049E-2,7.596065279E-2
1.398511986E1,1.399582624E-2,2.810948342E-2,4.968738556E-2,5.877807835E-2
1.399509901E1,-4.347211123E-2,7.576548308E-2,-5.295753479E-3,8.751158715E-2
1.400510878E1,-2.844005823E-3,7.459525764E-2,9.535408020E-2,1.210988912E-1
1.401511863E1,1.406350732E-2,8.191937953E-2,6.886482239E-3,8.340258161E-2
1.402509778E1,-2.124291658E-2,1.726590097E-1,-1.440048218E-4,1.739609608E-1
1.403510755E1,-2.584722638E-2,2.655570805E-1,6.223106384E-2,2.739732604E-1
1.404511739E1,-1.701408625E-2,2.541443110E-1,-5.019283295E-2,2.596114990E-1
1.405512724E1,-1.093262434E-2,2.346113026E-1,4.088687897E-2,2.383982434E-1
1.406510639E1,2.272754908E-3,2.114448249E-1,5.058097839E-2,2.174224339E-1
1.407511616E1,-4.770898819E-2,2.063974142E-1,-1.865291595E-2,2.126592848E-1
1.408512601E1,-3.539428115E-2,1.748922914E-1,9.406948090E-2,2.017154827E-1
1.409510516E1,-3.786993027E-2,1.007582396E-1,1.229677200E-1,1.634240332E-1
1.410511493E1,-8.037686348E-3,-4.474371672E-4,8.136749268E-3,1.144601636E-2
1.411512478E1,9.494215250E-3,-1.067453027E-1,9.676647186E-2,1.443899229E-1
1.412510393E1,-1.913973689E-2,-1.716447026E-1,6.564903259E-2,1.847647935E-1
1.413511370E1,7.884502411E-4,-1.763734818E-1,-3.744125366E-3,1.764149801E-1
1.414512332E1,-3.640183806E-2,-8.032724261E-2,1.160125732E-1,1.457274060E-1
1.415510270E1,-4.277551174E-2,7.991287112E-2,1.788997650E-2,9.238973230E-2
1.416511247E1,5.639791489E-3,2.807253599E-1,-4.672908783E-2,2.846438873E-1
1.417512232E1,1.509729028E-2,3.908250332E-1,1.376485825E-1,4.146314834E-1
1.418510147E1,-3.748100996E-2,4.606063962E-1,1.042165756E-1,4.737342852E-1
1.419511124E1,-3.669086099E-2,4.329801500E-1,-9.435176849E-2,4.446574927E-1
1.420512109E1,1.816517115E-2,2.711045742E-1,-5.668640137E-3,2.717715899E-1
1.421510024E1,-1.777082682E-3,1.206727326E-1,7.578086853E-2,1.425054611E-1
1.422511009E1,2.503931522E-3,1.857583970E-2,3.031444550E-2,3.564122752E-2
1.423511986E1,-5.011576414E-2,-7.559698820E-2,2.553949356E-1,2.710222640E-1
1.424509901E1,-4.171812534E-2,2.231622487E-2,-1.468639374E-1,1.542965715E-1
1.425510886E1,-1.903587580E-2,7.159052044E-2,-1.469144821E-1,1.645339851E-1
1.426511863E1,-2.644321322E-2,1.129655689E-1,1.474637985E-1,1.876327135E-1
1.427509778E1,-8.602648973E-3,1.778094172E-1,-1.133918762E-3,1.780210106E-1
1.428510755E1,1.761963964E-2,2.976318598E-1,9.692382812E-2,3.135114099E-1
1.429511740E1,-2.536183596E-2,4.724091291E-1,2.524690628E-1,5.362408374E-1
1.430512701E1,-7.529330254E-2,5.857735872E-1,8.482551575E-2,5.966532871E-1
1.431510632E1,-9.305626154E-3,4.228436351E-1,-8.767890930E-2,4.319385669E-1
1.432511616E1,3.360900283E-2,3.596961796E-1,7.047653198E-4,3.612636204E-1
1.433512601E1,7.337528467E-2,4.145590663E-1,1.034040451E-1,4.335153381E-1
1.434510516E1,6.727486849E-3,4.136253893E-1,-1.577663422E-1,4.427430863E-1
1.435511493E1,1.999610662E-2,3.270528316E-1,3.838539124E-2,3.299042850E-1
1.436512478E1,-3.961983323E-2,4.510153234E-1,1.602334976E-1,4.802700562E-1
1.437510393E1,2.707090974E-2,6.582090855E-1,3.251161575E-1,7.346240877E-1
1.438511370E1,-8.210730553E-2,9.755787849E-1,-1.469831467E-1,9.899998084E-1
1.439512332E1,-2.056199312E-2,1.014902711E0,9.434890747E-2,1.019486157E0
1.440510270E1,-1.269388199E-1,8.390307426E-1,1.953220367E-2,8.488036039E-1
1.441511247E1,6.800419092E-2,-1.350745678E0,3.355503082E-2,1.352872646E0
1.442512232E1,5.459294915E-1,-1.657490849E0,-5.174160004E-1,1.820174234E0
1.443510147E1,1.129295230E-1,-4.299131036E-1,5.190534592E-1,6.833702125E-1
1.444511124E1,2.222246528E-1,-3.999908864E-1,4.736900330E-1,6.586036387E-1
1.445512109E1,1.012910008E-1,-1.193285346E0,-6.178293228E-1,1.347554398E0
1.446510024E1,-1.306794584E-1,-1.228403568E0,1.988286972E-1,1.251233511E0
1.447511009E1,4.140365124E-2,-1.557599068E0,1.725301743E-1,1.567672089E0
1.448511986E1,3.515106440E-2,-1.985150218E0,2.011528015E-1,1.995625074E0
1.449509901E1,2.177834511E-2,-2.280297041E0,2.535171509E-1,2.294449790E0
1.450510886E1,4.319483042E-2,-2.370729923E0,4.225540161E-2,2.371499880E0
1.451511863E1,-4.045182467E-2,-2.032780886E0,2.114000320E-1,2.044143941E0
1.452509778E1,-5.555045605E-2,-1.487953186E0,1.049222946E-1,1.492681890E0
1.453510763E1,-8.710190654E-2,-1.015910983E0,8.675670624E-2,1.023322331E0
1.454511740E1,-1.102780104E-1,-6.138477325E-1,3.732681274E-3,6.236859877E-1
1.455512701E1,3.659045696E-2,-3.694686294E-1,-1.633615494E-1,4.056265837E-1
1.456510640E1,5.350005627E-2,-4.885583222E-1,3.805828094E-2,4.929502236E-1
1.457511616E1,2.305466533E-1,-1.406080484E0,-2.899198532E-1,1.454052134E0
1.458512578E1,2.362466455E-1,-8.057490587E-1,-4.849433899E-3,8.396829998E-1
1.459510517E1,2.076601982E-2,1.446347952E0,1.148900986E-1,1.451052501E0
1.460511493E1,-4.292252064E-1,1.310352087E0,-4.284887314E-1,1.443904243E0
1.461512478E1,7.673662901E-2,9.242742062E-1,3.181819916E-1,9.805157307E-1
1.462510393E1,-4.462319613E-2,8.516018391E-1,-3.438377380E-2,8.534630430E-1
1.463511370E1,1.476185322E-1,6.282513142E-1,5.159101486E-1,8.262289188E-1
1.464512355E1,-2.277237177E-2,4.609173238E-1,3.075008392E-1,5.545449724E-1
1.465510270E1,2.032492161E-1,3.827986419E-1,-4.185867310E-2,4.354275974E-1
1.466511247E1,-8.372265100E-2,7.355068326E-1,9.768104553E-2,7.466735363E-1
1.467512232E1,-1.383421123E-1,7.812887430E-1,3.283176422E-1,8.586868546E-1
1.468510147E1,-1.487151682E-1,1.034931660E0,-1.521482468E-1,1.056574101E0
1.469511124E1,-4.066926241E-2,9.873710275E-1,-3.646631241E-1,1.053344544E0
1.470512109E1,2.510088682E-2,8.680925369E-1,-1.655941010E-1,8.841018683E-1
1.471510024E1,1.067144871E-1,7.192898989E-1,-4.951477051E-3,7.271797972E-1
1.472511001E1,-5.782997608E-2,6.817559600E-1,2.145767212E-4,6.842043124E-1
1.473511986E1,-3.463667631E-2,4.547219574E-1,-4.737567902E-2,4.584934164E-1
1.474509901E1,-9.835076332E-2,4.464784861E-1,1.610612869E-1,4.847232709E-1
1.475510878E1,-2.493757010E-2,2.953668237E-1,4.744157791E-1,5.594048395E-1
1.476511863E1,6.126916409E-2,3.965553641E-2,-2.134246826E-1,2.255583454E-1
1.477509778E1,1.260598302E-1,-1.654758900E-1,-1.092309952E-1,2.349569349E-1
1.478510763E1,4.074305296E-2,-2.575843930E-1,3.418416977E-1,4.299598379E-1
1.479511740E1,7.736599445E-2,-1.379285902E-1,3.865718842E-2,1.628010175E-1
1.480512724E1,7.734310627E-2,1.821444184E-1,-2.714757919E-1,3.359429279E-1
1.481510640E1,-3.377425671E-2,6.529483795E-1,-3.295230865E-2,6.546511601E-1
1.482511616E1,-2.292031050E-2,8.612477779E-1,1.915836334E-2,8.617656982E-1
1.483512578E1,2.294635773E-2,1.366898775E0,-3.403224945E-1,1.408814465E0
1.484510517E1,2.592569590E-2,1.899504304E0,5.686092377E-2,1.900532006E0
1.485511494E1,8.115226030E-2,2.139660358E0,1.954689026E-1,2.150102377E0
1.486512478E1,1.211017966E-1,1.917419910E0,-2.357959747E-1,1.935656090E0
1.487510394E1,-4.413735867E-2,1.717404008E0,-5.888271332E-2,1.718979874E0
1.488511370E1,-1.307269335E-1,1.225810170E0,7.727146149E-2,1.235180547E0
1.489512355E1,5.753862858E-2,-3.071092963E-1,-3.230476379E-1,4.494291825E-1
1.490510270E1,5.765265226E-2,-9.964973927E-1,7.159900665E-2,1.000728385E0
1.491511247E1,2.070075274E-2,-1.148038030E0,7.366781235E-1,1.364226703E0
1.492512232E1,6.259548664E-2,-1.381132364E0,7.274150848E-2,1.384462397E0
1.493510147E1,5.342668295E-2,-1.365354300E0,-3.230829239E-1,1.404075977E0
1.494511124E1,-1.162413359E-1,-1.044204354E0,2.148447037E-1,1.072395929E0
1.495512109E1,2.203059196E-2,-9.112480283E-1,1.107883453E-1,9.182223987E-1
1.496510024E1,4.024708271E-2,-6.333410144E-1,1.955566406E-1,6.640655599E-1
1.497511001E1,-5.821108818E-3,-4.816719294E-1,1.723241806E-1,5.116027327E-1
1.498511986E1,1.216613650E-1,-3.464816809E-1,-2.581272125E-1,4.488660165E-1
1.499509901E1,1.434665322E-1,-2.261030376E-1,4.030828476E-1,4.839225263E-1
1.500510878E1,1.330587864E-1,-3.211871982E-1,4.131708145E-1,5.399777578E-1
1.501511863E1,1.917912364E-1,-4.712103009E-1,-3.544826508E-1,6.200652996E-1
1.502509778E1,1.462492943E-1,-3.759393096E-1,1.185913086E-1,4.204558467E-1
1.503510755E1,8.827775717E-2,-2.996147275E-1,3.192024231E-1,4.466006429E-1
1.504511740E1,2.757257223E-2,-2.635298371E-1,-1.381263733E-1,2.988094992E-1
1.505512724E1,-4.186034203E-2,-1.369618177E-1,2.537250519E-2,1.454461817E-1
1.506510640E1,3.468638659E-2,-1.003802866E-1,1.625490189E-1,1.941688206E-1
1.507511617E1,1.168539524E-1,-3.915458918E-3,-1.646738052E-1,2.019594988E-1
1.508512601E1,3.284043074E-2,3.907324970E-1,1.411380768E-1,4.167377290E-1
1.509510517E1,1.941895485E-2,4.472634196E-1,2.805919647E-1,5.283498018E-1
1.510511494E1,-7.488304377E-2,5.427904725E-1,-3.218984604E-1,6.354900362E-1
1.511512478E1,-1.089955568E-1,4.713644087E-1,7.217407227E-3,4.838558961E-1
1.512510394E1,-3.248828650E-2,3.776849806E-1,4.388732910E-1,5.799234423E-1
1.513511370E1,5.506831408E-2,9.740363061E-2,2.929410934E-1,3.135832755E-1
1.514512332E1,1.435277462E-1,-1.925783604E-1,-1.715002060E-1,2.951253285E-1
1.515510270E1,6.325989962E-2,-3.009446263E-1,-1.352548599E-1,3.359514253E-1
1.516511247E1,-2.374827862E-2,-4.118662775E-1,2.600936890E-1,4.876951284E-1
1.517512232E1,-7.784610987E-2,-5.561921597E-1,-5.254745483E-2,5.640664591E-1
1.518510147E1,-1.176561713E-1,-4.762678444E-1,-1.976470947E-1,5.289030236E-1
1.519511124E1,-9.568780661E-2,-3.118278980E-1,1.238241196E-1,3.488913970E-1
1.520512109E1,-6.009519100E-2,-1.866272539E-1,-2.425765991E-2,1.975590999E-1
1.521510024E1,3.890126944E-2,-3.257470727E-1,-4.023246765E-1,5.191238864E-1
1.522511009E1,4.230356216E-2,-5.439452827E-2,1.821079254E-1,1.947091487E-1
1.523511986E1,6.141358614E-2,2.906130552E-1,3.046512604E-1,4.254879163E-1
1.524509901E1,3.011393547E-2,4.646257162E-1,-2.738714218E-1,5.401753983E-1
1.525510886E1,-1.073320508E-1,6.555545926E-1,1.319742203E-1,6.772659654E-1
1.526511863E1,-6.945741177E-2,5.396814346E-1,9.259033203E-2,5.519541218E-1
1.527509778E1,-3.613156080E-2,9.270408750E-1,2.304468155E-1,9.559372408E-1
1.528510755E1,-1.171445847E-1,6.784572601E-1,2.510442734E-1,7.328371816E-1
1.529511740E1,7.044786215E-2,3.291313648E-1,-1.928491592E-1,3.879190055E-1
1.530512701E1,1.676406860E-1,5.663215518E-1,2.038183212E-1,6.247922917E-1
1.531510632E1,3.187154531E-1,1.179338694E0,4.648408890E-1,1.307094620E0
1.532511617E1,2.464413643E-3,2.561459303E0,5.333290100E-1,2.616394402E0
1.533512601E1,-2.348474860E-1,3.282943249E0,-7.313537598E-1,3.371609117E0
1.534510517E1,-3.356400430E-1,4.297920704E0,-6.638622284E-2,4.311517569E0
1.535511494E1,1.702520251E-1,5.570151329E0,8.081150055E-2,5.573338504E0
1.536512478E1,-3.072267175E-1,8.289321899E0,-5.006980896E-2,8.295164422E0
1.537510394E1,-6.036465168E-1,1.036154175E1,4.529933929E-1,1.038899127E1
1.538511370E1,-8.278068900E-2,8.797755241E0,-2.647890091E0,9.187963423E0
1.539512332E1,-2.702796459E0,9.261276245E0,4.564717293E0,1.067300287E1
1.540510271E1,-1.638496637E0,7.254745960E0,-1.805135727E0,7.653399583E0
1.541511247E1,2.750434577E-1,8.382921219E0,-1.282879829E0,8.484974822E0
1.542512232E1,5.595359206E-2,5.934094906E0,6.542110443E-2,5.934719292E0
1.543520824E1,7.064877033E0,1.476022720E1,-1.735817909E0,1.645569380E1
1.544511124E1,7.445967674E0,1.524008751E1,4.209077835E0,1.747624211E1
1.545512109E1,-1.552561641E0,1.017051888E1,-3.418538094E0,1.084141617E1
1.546510024E1,1.276850128E1,2.131019592E1,3.739198685E0,2.512251345E1
1.547511009E1,-5.177362442E0,1.117353058E1,1.385745049E0,1.239246371E1
1.548511986E1,1.440682530E0,1.100924397E1,-5.645446777E-1,1.111745158E1
1.549509901E1,-3.186064959E0,9.770882607E0,4.013689995E0,1.103317109E1
1.550510886E1,-4.956476688E-1,-4.257536232E-1,1.486063957E0,1.623366516E0
1.551511863E1,2.228094482E1,1.765219116E1,7.609483719E0,2.942693660E1
1.552509778E1,1.337308598E1,5.516789913E0,-1.754634094E1,2.274089884E1
1.553510763E1,-1.415399742E1,2.865807724E1,1.475024891E1,3.520214307E1
1.554476640E1,-1.269474506E1,1.328402615E1,1.268220234E1,2.232622133E1
1.555509655E1,3.809018612E0,1.417205334E0,6.571317673E0,7.726532838E0
1.556510632E1,-1.299703717E0,8.924639225E-1,-3.015222931E1,3.019342071E1
1.557511617E1,-1.683568954E0,3.218983650E0,8.258609772E-1,3.725359918E0
1.558518694E1,1.971824646E1,1.073908138E1,9.267676353E0,2.429047009E1
1.559521194E1,8.043759346E0,1.089764881E1,6.166597366E0,1.488246408E1
1.560511494E1,3.774120808E-1,1.182240391E1,-1.022218990E1,1.563345261E1
1.561512478E1,-6.352243423E0,1.492877865E1,8.153904915E0,1.815779705E1
1.562510394E1,-7.925472260E0,-7.649617195E-1,-1.031888008E0,8.028889701E0
1.563511371E1,1.804508781E1,4.924865246E0,-1.034790993E0,1.873366713E1
1.564530663E1,7.589929104E0,-1.526332283E1,-1.635251999E1,2.362162055E1
1.565510271E1,1.878810120E1,-4.595927238E0,7.035846710E0,2.058199292E1
1.566500609E1,-2.708981133E1,-1.371977329E1,9.928669930E0,3.194790358E1
1.567509163E1,8.091016769E0,6.084997177E0,8.302076340E0,1.309260152E1
1.568510148E1,-1.118621826E1,-1.166130781E0,-1.708834267E1,2.045734086E1
1.569506548E1,2.643675089E0,4.575364590E-1,8.336267471E0,8.757380484E0
1.570509063E1,-4.160843849E0,-6.524053097E0,8.001235962E0,1.113084306E1
1.571510024E1,3.109911156E1,5.068826675E0,4.908552170E-1,3.151330961E1
1.572509471E1,-6.157412529E0,2.510167122E0,5.087108612E-1,6.668842086E0
1.573508917E1,-3.493466377E0,-9.747220993E0,5.851388454E0,1.189333306E1
1.574509901E1,9.966722488E0,2.778201103E0,6.595223427E0,1.226991975E1
1.575510878E1,1.104866028E1,1.920078635E0,-8.449355125E0,1.404105402E1
1.576511863E1,-5.580005169E0,6.251958609E-1,-5.607619286E0,7.935535370E0
1.577520478E1,3.657985449E0,-1.886399686E-1,5.486869335E0,6.597134051E0
1.578510763E1,-2.671936750E0,-3.113881588E0,3.924715996E0,5.677930978E0
1.579511740E1,-6.424986362E0,-3.649863958E0,-2.642210007E0,7.847498352E0
1.580523401E1,-1.043777847E1,6.676322818E-1,-2.249183655E-1,1.046152669E1
1.581510640E1,1.768513489E1,-8.884284496E-1,-2.813613892E0,1.792957680E1
1.582511617E1,2.904281616E1,1.014467621E1,-6.941256523E0,3.153697303E1
1.583527863E1,-1.713466406E0,-1.516808796E1,-2.547939301E0,1.547575052E1
1.584521217E1,4.543921471E0,7.758143544E-1,6.219139099E0,7.741240300E0
1.585511494E1,-1.522103024E1,-1.050687981E1,-6.446303368E0,1.958645225E1
1.586512478E1,-7.111884594E0,-1.259986162E0,-1.880934715E0,7.463536897E0
1.587510394E1,5.850148797E-1,4.174014091E0,7.100292206E0,8.257044596E0
1.588511371E1,-1.345560169E1,-7.449551105E0,5.388600349E0,1.629681080E1
1.589512355E1,2.933386993E1,1.578440952E1,3.534852028E0,3.349804006E1
1.590510271E1,-1.950867271E1,-7.653997421E0,-1.314474297E1,2.473774960E1
1.591511248E1,1.809707642E1,7.621737480E0,3.088528156E0,1.987797935E1
1.592512232E1,-1.004234695E1,-1.833664775E-1,6.583917618E0,1.200959312E1
1.593510148E1,-1.388394260E1,-1.279041958E1,-2.155328751E0,1.900010887E1
1.594511125E1,6.248154044E-1,8.387569427E0,-4.966095924E0,9.767488107E0
1.595474017E1,1.324156094E1,4.258465767E0,-1.912794113E-1,1.391078914E1
1.596513071E1,3.904166698E0,-5.416563749E-1,5.881001472E0,7.079695442E0
1.597518578E1,-1.296338367E1,-1.114894962E1,1.115402222E0,1.713454161E1
1.598508940E1,1.689135170E1,5.144264698E0,-6.262677193E0,1.873505664E1
1.599519063E1,-1.177991676E1,-7.121490955E0,-3.828296661E0,1.428768448E1
1.600521471E1,6.184166670E-2,4.754311562E0,-3.704690933E-1,4.769124675E0
1.601511863E1,-4.172623825E1,-2.219802380E0,7.659358978E-1,4.179226171E1
1.602521986E1,-1.770311117E0,6.910267353E0,5.380640984E0,8.935160532E0
1.603510755E1,3.779063416E1,9.156452179E0,-3.302350044E0,3.902407157E1
1.604491801E1,-1.687725830E1,-4.670735359E0,2.721103191E0,1.772179503E1
