Time (s),Linear Acceleration x (m/s^2),Linear Acceleration y (m/s^2),Linear Acceleration z (m/s^2),Absolute acceleration (m/s^2),Velocity (m/s),Position (m)
0.035130695,0.002489805222,-0.001356311142,-0.03356647491,0.03368600523,0.0,0.0
0.045140541,0.02875971794,0.01072672009,-0.09582138062,0.1006176967,4.689817526325099e-05,2.3472175603307586e-07
0.055150387,0.04066818953,-0.00832105428,-0.07906627655,0.08930071484,5.8938347406033625e-05,7.644254025806e-07
0.065129464,0.03681778908,0.01126114279,-0.0869846344,0.09512460014,7.360803222008625e-05,1.4257706667607403e-06
0.07513931,0.04217225313,0.004009015858,-0.0634098053,0.07625860312,0.00015003400045111037,2.545081819843564e-06
0.085149156,0.03407967091,0.00406242907,-0.07808685303,0.08529644726,0.00019043096081449093,4.249082735175882e-06
0.09512831,0.03647917509,-0.0007325187325,-0.09031772614,0.09740923187,0.00020704580484654317,6.232323663152565e-06
0.105138079,0.0516858995,0.008841089904,-0.07377147675,0.09050871703,0.00024762826701993037,8.507914877988964e-06
0.115147926,0.04011240602,0.001381136477,-0.06717014313,0.07824794427,0.00029878972805651724,1.1242695142369961e-05
0.125127079,0.03334146738,-0.003476724029,-0.07445716858,0.08165544079,0.0002883336336533655,1.4172192070558593e-05
0.135136849,0.03711512685,0.006150320172,-0.08648109436,0.09430980204,0.00030171467488552406,1.7125315999240253e-05
0.145146464,0.02256852388,0.001475647092,-0.07691478729,0.08017106903,0.0003398811730431457,2.0336379710922518e-05
0.155125849,0.008227080107,0.01346085966,-0.07028961182,0.07203824761,0.0004144097487597995,2.4100059466260762e-05
0.165135618,0.002659857273,-0.02005796134,-0.06541824341,0.0684758587,0.00038139201681664355,2.8082955387866936e-05
0.175145464,-0.001776576042,-0.0009732991457,-0.0628824234,0.06291504356,0.00027613217749277255,3.13738133510226e-05
0.185124618,-0.01284116507,0.001420900226,-0.05313491821,0.05468303221,0.0002783655175482126,3.414052229675211e-05
0.195134387,-0.02100169659,-0.0106158331,-0.07687759399,0.08039857978,0.00023234594052858954,3.6696574157253096e-05
0.205144233,-0.0141685009,0.006077289581,-0.047914505,0.05033368312,0.00020963087968384547,3.8908634110201184e-05
0.215123387,-0.0286641717,-0.01553975046,-0.05963897705,0.06797003874,0.00016241720251858734,4.076499666405255e-05
0.225133233,-0.03818535805,-0.003634914756,-0.05219650269,0.06477506516,6.644947956172907e-05,4.191045678513001e-05
0.235143003,-0.05469846725,-0.01246878505,-0.03963375092,0.06868935239,-1.4147686041823256e-05,4.2172221246990884e-05
0.245122157,-0.064024508,-0.002955235541,-0.02977848053,0.07067268881,-9.11070244302034e-05,4.1647044764478e-05
0.255131926,-0.04566514492,0.008447647095,-0.02182769775,0.05131390251,-6.361813897596789e-05,4.087266319238649e-05
0.265141772,-0.06780260801,-0.01070937514,-0.02158927917,0.07195819164,-7.49379136881334e-05,4.017920081761872e-05
0.275151387,-0.04783546925,0.0104137361,-0.02535247803,0.05513099092,-7.641753017281821e-05,3.94216959570176e-05
0.285130695,-0.05447441339,-0.001504376531,-0.0179977417,0.05739027417,-3.196290856191925e-05,3.888091506736306e-05
0.295140541,-0.03164374828,-0.005364105105,-0.01257038116,0.0344690428,-6.633913027701325e-05,3.8388920932231196e-05
0.305150388,-0.0384079814,-0.0005829408765,-0.02691078186,0.04690099184,-9.61036404654032e-05,3.757590729153736e-05
0.315129464,-0.04072546959,0.01184049994,-0.004454612732,0.0426451039,-3.9933621730825364e-05,3.6897144202393315e-05
0.325139311,0.008175909519,0.002196542919,-0.0332698822,0.03433009407,3.0320703944690646e-05,3.684903228426192e-05
0.335149157,0.01320654154,0.006973899901,-0.04537391663,0.04776861239,7.621806413469345e-05,3.7382250615014095e-05
0.345128311,0.02265632153,0.004628621042,-0.02398109436,0.03331404996,0.00013410973577390482,3.843169736789864e-05
0.35513808,0.04133743048,-0.009624496102,-0.03134059906,0.05276028083,0.00010910595812217424,3.9648963824435875e-05
0.365147926,0.02398043871,0.002342872322,-0.04109859467,0.04764079108,7.266199178830535e-05,4.0558698417605684e-05
0.37512708,0.02817708254,0.009644918144,-0.0580406189,0.0652356181,0.00013247599537827818,4.1582250200198365e-05
0.385136849,0.03488272429,0.002578340471,-0.03666782379,0.05067525624,0.00019365199295998315,4.321448311404871e-05
0.395146465,0.03704112768,0.002746768296,-0.04400920868,0.05758819605,0.00022030313991793489,4.528624907471718e-05
0.405125849,0.04907816648,0.005058549345,-0.05851268768,0.07653750693,0.0002592492709086914,4.76790679025995e-05
0.415135619,0.058983922,0.009937889874,-0.03708934784,0.07038099483,0.00033430472460927645,5.0649737391457454e-05
0.425145465,0.03590005636,-0.004330612719,-0.0515460968,0.06296481834,0.00036236871500971047,5.413653431289563e-05
0.435124619,0.04445493221,-0.004294045269,-0.05400085449,0.07007690139,0.00031933531987991945,5.753794908618812e-05
0.445134388,0.04863762856,-0.006701871753,-0.04924869537,0.06954112447,0.0002643020252132255,6.0458986588265954e-05
0.455144234,0.04834419489,0.01488561928,-0.04447746277,0.06735716395,0.0003052610514373009,6.330960593054493e-05
0.465123388,0.03195101023,-0.006672717631,-0.05403232574,0.06312594111,0.00034623995660841355,6.656032037576666e-05
0.475133234,0.03027743101,-0.001896351576,-0.05638408661,0.06402721453,0.0003033524250457075,6.981148022733214e-05
0.485143003,0.04808479548,0.007658801973,-0.04435062408,0.06586184525,0.00033219282371967166,7.299231079192664e-05
0.495122157,0.04456341267,-0.01377309859,-0.03948879242,0.061114325,0.0003016850699483107,7.615509335098085e-05
0.505132003,0.01011770964,0.003095902503,-0.0250377655,0.02718165488,0.00024824652567697415,7.890745864235255e-05
0.515141773,0.009390175343,0.02228824049,-0.02254486084,0.03306375368,0.0003752912421804939,8.202819346363585e-05
0.525151388,0.02063775063,0.007942274213,-0.0200510025,0.02985027926,0.0005265891488949299,8.65419312089931e-05
0.535130696,0.01280885935,0.003176689148,-0.02952289581,0.03233820664,0.0005820689289049965,9.207375142151977e-05
0.545140542,0.004898905754,-0.001523286104,-0.02224254608,0.02282653137,0.000590344083828182,9.794158827444735e-05
0.555150388,0.006232559681,0.0128621459,-0.02216243744,0.02637144726,0.0006470942040149583,0.00010413487162235416
0.565129465,-0.009496033192,0.0009173899889,-0.01731204987,0.01976672257,0.0007158477288447566,0.00011093532286962212
0.575139311,-0.004007875919,-0.008557140827,-0.05557823181,0.05637577121,0.0006776113641608807,0.00011790947833376516
0.585149157,0.005940496922,0.01069525629,-0.0196428299,0.02314127864,0.000688312467418305,0.00012474582193468394
0.595128311,0.01313138008,0.005939178169,-0.03640270233,0.0391518035,0.0007713112590029382,0.00013202872690868962
0.605138081,0.01260602474,0.01069702208,-0.03164577484,0.03570424634,0.0008545735280861548,0.00014016609329132004
0.615147927,0.0118470788,0.003551572561,-0.01972103119,0.02327844529,0.0009258866471225724,0.00014907715937280622
0.625127081,0.0179104805,0.005980074406,-0.03176021576,0.03694939657,0.0009734455336012357,0.00015855402353710563
0.63513685,0.03345215321,-0.01061371714,-0.01986408234,0.04032715354,0.0009502546869033016,0.00016818192095335532
0.645146465,0.01288169622,0.006180658937,-0.03431510925,0.03717075955,0.0009280680839609907,0.00017758256484439768
0.65512585,0.02109396458,0.01829825342,-0.02960968018,0.04070030196,0.0010502103293568716,0.00018745356580624178
0.665135619,0.01501142979,0.003969267011,-0.02968883514,0.03350410478,0.0011616566972154163,0.00019852370480359446
0.675145465,0.02102100849,0.008789166808,-0.03694152832,0.04340286587,0.0012255116760801071,0.0002104712986999738
0.685124619,0.0200252533,-0.0008078441024,-0.04418182373,0.04851491451,0.0012653351002815468,0.0002228995704858321
0.695134388,0.01448559761,0.004016011953,-0.03943920135,0.04220677071,0.0012813916098304132,0.00023564564352300752
0.705144235,0.05229157209,0.008769191802,-0.03228664398,0.06207845533,0.0013453805765561006,0.0002487924373677997
0.715123388,0.03274047375,0.008791357279,-0.03709888458,0.05025488853,0.0014330002795777544,0.00026265538119561504
0.725133235,0.0348341465,0.008747585118,-0.04190444946,0.05518986223,0.0015207813445456467,0.0002774388322600585
0.735143004,-0.001225531101,-0.0008027255535,-0.03473091125,0.03476179644,0.0015605444490346893,0.00029286051196379887
0.745122158,0.0971788168,-0.01274581999,-0.09457206726,0.1361985839,0.001492942937807389,0.00030809612239897626
0.755131927,0.07586187124,0.01365505904,-0.09216403961,0.1201486344,0.0014974935742355286,0.00032306291174633386
0.765141773,0.05373817682,0.02558720857,-0.01065254211,0.06046464706,0.0016938981019689724,0.0003390355813485783
0.775151389,0.03541463614,0.006383173168,-0.07749652863,0.08544386052,0.0018539037242543696,0.00035679164831087554
0.785130773,0.023019135,0.006391815841,-0.01498603821,0.02820136924,0.0019176469847126648,0.00037561052471100264
0.795140543,-0.02226316929,0.02321305871,-0.03144454956,0.04498060136,0.002065815977279847,0.0003955472987375346
0.805150389,-0.04109871387,0.01125588268,-0.007190704346,0.04321464342,0.0022383303748283096,0.00041708921981056677
0.815129466,-0.06036937237,0.006497688591,-0.006902694702,0.06110915047,0.002326912502197458,0.0004398676749073376
0.825139312,-0.06415706873,-0.005552098155,0.01006793976,0.06517912759,0.0023316451095191744,0.00046318339704504326
0.835149158,-0.08139491081,0.01604154706,0.007793426514,0.08332586774,0.0023841439936011337,0.00048678555839039945
0.845128312,-0.06412947178,-0.005411222577,0.01261138916,0.06558138163,0.0024371848161440475,0.0005108419497289415
0.855138081,-0.0339127779,-0.00782006979,-0.02575302124,0.04329489692,0.002370963726061481,0.0005349061778415234
0.865147927,-0.0007197260857,0.006586790085,-0.009161949158,0.01130686171,0.0023647912561004934,0.0005586082668741104
0.875127081,-0.006646513939,0.009014427662,-0.01416969299,0.01806145767,0.0024426347333429167,0.0005825952890202396
0.88513685,-0.006099760532,0.009162992239,-0.004855155945,0.01203079567,0.0025336106204554227,0.0006075008222596618
0.895146466,0.01049315929,-0.009830839932,-0.1081104279,0.1090624427,0.0025302681709787147,0.0006328445633460619
0.90512585,0.01747632027,0.004579566419,-0.01264476776,0.02205185594,0.0025040659335410866,0.0006579643399527114
0.91513562,0.0511610508,0.01192724705,-0.1015090942,0.114297019,0.002586680636669883,0.0006834429411007618
0.925145466,0.09167069197,-0.002265140414,-0.05392360687,0.1063785787,0.002635038736400852,0.0007095772444905891
0.93512462,0.07377970219,0.007241308689,-0.1403226852,0.1587020384,0.002659867711173921,0.0007359965879185597
0.945134389,0.07194459438,-0.00713929534,0.01758670807,0.07440622622,0.0026603782762031243,0.0007626238045969705
0.955144235,0.04018050432,0.004935517907,-0.09019088745,0.09885964012,0.0026493485398418216,0.0007891985784623106
0.965123389,0.0450822711,0.007253110409,-0.0399055481,0.06064215981,0.0027101646393488843,0.0008159402821523975
0.975133235,0.04844886065,-0.004677198827,-0.08533859253,0.09824379706,0.0027230568784716025,0.0008431331374910322
0.985143005,0.01896089315,0.007212176919,-0.01820373535,0.02725631937,0.002735744152299582,0.0008704538088879232
0.995122158,-0.01457828283,0.00718716532,-0.0108795166,0.01955877187,0.002807590771950754,0.0008981127025575921
1.005131928,-0.03831017017,0.01913554966,-0.05860900879,0.07258687423,0.0029393329333134302,0.0009268753948062131
1.015141774,-0.03605258465,0.0168453902,0.01334953308,0.0419733971,0.003119414766780361,0.0009571989605216095
1.025151389,-0.03880304098,0.009655602276,-0.02004718781,0.0447302625,0.003252047132681689,0.0009890869008220013
1.035130697,-0.04509049654,0.004863619804,0.03028488159,0.0545342253,0.00332449302721005,0.0010219015607369662
1.045140543,-0.02125304937,0.002505980432,-0.03436470032,0.04048338762,0.003361377308932012,0.0010553638269573413
1.055150389,0.001442909241,0.0072728917,0.01583862305,0.01748825094,0.0034103198109795177,0.0010892556496218202
1.065129466,0.04267770052,0.01684254408,-0.0800409317,0.09225837718,0.0035306447062481037,0.001123887859307661
1.075139312,0.1053247452,0.007298357785,-0.06100654602,0.121935912,0.003651468061232985,0.0011598337806862206
1.085149159,0.1525598764,-0.009438827634,-0.1209001541,0.1948857476,0.003640755173384683,0.0011963308001204048
1.095128312,0.1801607311,0.009648256004,-0.08969974518,0.2014870273,0.0036418001322580684,0.00123266766693339
1.105138082,0.2127363086,-0.01667228341,-0.1301717758,0.2499587831,0.0036066456828541898,0.0012689453046667587
1.115147928,0.2072253525,0.007202640176,-0.07710933685,0.2212240371,0.003559250847630549,0.001304810065027802
1.125127082,0.142973274,0.00938270241,-0.1794490814,0.2296331096,0.003642004691534774,0.001340741284037143
1.135136851,0.1439511478,-0.02187682688,0.07035636902,0.1617113081,0.0035794730416338,0.0013768839460109737
1.145146697,-0.1181889176,-0.005412176251,-0.01947307587,0.1199045979,0.003442893682216386,0.0014120303507416062
1.155125851,-0.04805040359,0.02077141404,0.1326704025,0.1426244321,0.0035195297818259117,0.0014467698987220522
1.16513562,0.03250980377,0.0111463666,0.00462436676,0.03467727783,0.0036792745874254487,0.0014827990831282507
1.175145467,0.3409791291,0.1086759716,-0.2649431229,0.4452775445,0.0042789762237075805,0.0015226295196317848
1.18512462,0.3285503983,0.002885848284,0.1693973541,0.3696608661,0.004835622458498018,0.0015681075070234486
1.19513439,0.532951355,-0.01891752332,-0.2961893082,0.6100189552,0.004755385768585468,0.001616109400234055
1.205144236,0.5862634182,0.02138420194,-0.03853225708,0.5879173534,0.004767731305144314,0.0016637718679080578
1.21512339,0.6013597846,0.04062777013,-0.1666212082,0.6253373756,0.00507714481470943,0.0017128936353635294
1.225133236,0.4712780118,0.01427748054,-0.1808614731,0.5049927557,0.005351941366608478,0.0017650904086613894
1.235143005,-0.02954792976,0.0144122988,0.03168010712,0.04565548923,0.005495530398535665,0.0018193807519629472
1.245122159,-0.185772419,-0.03090929985,-0.02909660339,0.1905607221,0.0054132173415276106,0.001873810788785568
1.255131928,-0.3586843014,-0.08811187744,-0.3298006058,0.4951631757,0.004817530096137134,0.0019250144980597513
1.265141774,-0.4926493168,-0.147562623,-0.4370136261,0.6748770158,0.003637997368371469,0.001967333761944002
1.27515139,-0.4720039368,0.09017740935,1.216856956,1.30830445,0.0033507953920142385,0.0020023113278615228
1.285130698,-0.7765648365,0.1767547727,1.171469688,1.41655795,0.0046826946219087374,0.002042395663443453
1.295140544,-0.2937948704,-0.04856891185,-0.9541807175,0.9995675098,0.005324254985151701,0.002092479675691671
1.30515039,-0.3933241367,-0.09567074478,-0.2211618423,0.4612692581,0.004602346610172096,0.0021421615523279447
1.315129467,0.1201697588,-0.1878618598,0.9193878174,0.9460479946,0.003187649763614925,0.002181030039149815
1.325139313,-0.355869174,0.0002351477742,-0.3731918335,0.5156695346,0.002248592517182623,0.002208238013174551
1.335149159,-0.744124651,0.00742264837,-0.7244768143,1.038577511,0.002286919197234041,0.002230937900070804
1.345128313,-0.8340169191,0.1056992859,0.2181959152,0.8685424675,0.0028513497986631473,0.002256575688872546
1.355138082,-0.7383227348,0.01997166127,-0.0002164840698,0.7385928343,0.0034803183742546026,0.0022882649567703256
1.365147929,-1.240455389,0.04905575514,-0.9686079025,1.574591156,0.003825795312789292,0.0023248314968562825
1.375127082,-1.0929389,-0.05625150353,0.7693843842,1.337771281,0.0037898915757226355,0.0023628305491865597
1.385136852,-0.8829667568,-0.10739398,1.103931427,1.417684152,0.00297086474988558,0.002396667357109252
1.395146467,-0.9584608078,0.09042086452,-1.780974865,2.024523283,0.0028859175742329104,0.0024259794252108674
1.405125852,-1.360430956,0.03127778322,-0.7807397842,1.568854772,0.0034931564041213344,0.002457809042797607
1.415135621,-1.165797949,-0.1516140997,0.07781505585,1.178187963,0.002890887038983498,0.0024897604428733284
1.425145467,-0.7638478279,-0.08735915273,0.6599225998,1.01320924,0.0016948443115117598,0.0025127116751812438
1.435124621,0.2266163826,-0.01453859359,4.257868767,4.263919886,0.0011864176601216621,0.00252708795364588
1.44513439,0.392203331,-0.08070735633,1.800270081,1.844263943,0.0007097226816792752,0.0025365779170523845
1.455144236,-0.7393140793,-0.1838006973,0.8984441757,1.177951587,-0.000614119759618744,0.0025370564023158722
1.46512339,-1.393208504,-0.2061766982,0.2982301712,1.439611059,-0.002559942002725456,0.0025212191767499
1.475133236,-1.330123663,-0.2002933323,-0.8693552017,1.601600713,-0.004594293207185605,0.0024854127804004064
1.485143006,-1.408343315,-0.1751591116,-0.1737298965,1.429787986,-0.006473389511874041,0.002430020301175026
1.49512216,-1.250715733,-0.2281690538,-0.1834001541,1.284518033,-0.008485826449406085,0.0023553801412765896
1.505131929,-1.093347311,-0.2206766307,-0.1805763245,1.129917841,-0.010732247258652038,0.0022591959020552715
1.515141775,-1.113610506,-0.166728422,-0.05672168732,1.127450254,-0.012671179717226477,0.0021420635521048766
1.52515139,-1.157364368,-0.04677639902,-0.1289720535,1.165467333,-0.013739730246753528,0.0020098820318353253
1.535130698,-1.184198618,0.03032290936,-0.2584438324,1.212451673,-0.013821827467249505,0.0018723593951414205
1.545140544,-1.053476572,0.1147756577,-0.2337360382,1.085181494,-0.01309562031170387,0.001737639641651238
1.555150391,-1.103999853,0.1228377074,-0.2218122482,1.132742447,-0.011906383596800792,0.0016125065247424703
1.565129467,-1.144292355,0.1524832398,-0.1671056747,1.166439213,-0.010532659268550395,0.0015005460676821712
1.575139314,-1.221934795,0.1191245019,-0.06891822815,1.229660528,-0.009173283299334126,0.001401919332634515
1.58514916,-1.378053188,0.1372577995,-0.02544784546,1.385105731,-0.007890109622264335,0.0013165183649431697
1.595128314,-1.389238358,0.1151997745,-0.07802391052,1.396188359,-0.006630453117558131,0.0012440668990694943
1.605138083,-1.319606781,0.1120515615,-0.2119207382,1.34120394,-0.005493086428407458,0.0011833899839107551
1.615147929,-1.413062096,0.09391456842,-0.216170311,1.432582994,-0.004462241807549863,0.001133564332650063
1.625127083,-1.348412514,0.008420184255,-0.138335228,1.35551608,-0.003951634679301992,0.001091582648050426
1.635136852,-1.03121233,0.0876210928,0.04018497467,1.035708046,-0.003470959180409214,0.001054433423092162
1.645146468,-1.278968811,-0.08787089586,-0.05615901947,1.283213291,-0.0034722093967623265,0.001019684197451785
1.655125852,-1.001340866,-0.08658109605,-0.1983442307,1.024460956,-0.004342671105179717,0.000980690350730289
1.665135622,-0.5296630859,-0.09924799204,-0.09794235229,0.5477096429,-0.0052727243207250285,0.0009325664023941101
1.675145468,-0.2525987625,-0.04257594049,-0.2729539871,0.3743297004,-0.005982542182594873,0.0008762346602005148
1.685124622,0.01790904999,0.0118457675,-0.4950246811,0.4954901524,-0.006135872746951799,0.0008157688957915919
1.695134391,0.1740198135,0.02912473679,-0.5216441154,0.5506757022,-0.005930820105073593,0.0007553764917702288
1.705144237,0.1848883629,0.04345953465,-0.6562004089,0.6831335262,-0.005567541415505294,0.0006978280777335687
1.715123391,0.1251511574,0.01133596897,-0.6652607918,0.6770252857,-0.005294135030939524,0.0006436329067549456
1.725133237,0.1879076958,-0.04893438518,-0.6065211296,0.6368451592,-0.005482312208992525,0.0005896976181055233
1.735143006,0.2925691605,-0.05421330035,-0.515185833,0.5949388524,-0.005998554461512488,0.000532237206459747
1.74512216,0.5328416824,-0.2034928203,-0.4719138145,0.7402919929,-0.0072843989938669584,0.0004659608874067149
1.755131929,0.5469608307,-0.3125686049,-0.2519841194,0.6784992849,-0.009867226821898362,0.00038011898121159075
1.765141776,0.4451169968,-0.354699105,-0.1336874962,0.5846477081,-0.013206850663968078,0.00026463498856175603
1.775120929,0.3337826729,-0.3209314942,-0.0486369133,0.4655893534,-0.016577961224417303,0.00011602139110654828
1.785130699,0.2744579315,-0.2025744021,-0.07414054871,0.3490850405,-0.019198048032220708,-6.303342098185901e-05
1.795140545,0.2542643547,-0.110495314,-0.1440739632,0.312437007,-0.020764937854933066,-0.0002630450881971501
1.805150391,0.2540836334,-0.09265124798,-0.1532526016,0.310852226,-0.021781670755357693,-0.0004759875882027921
1.815129468,0.2141919136,-0.1191899478,-0.04416513443,0.2490682208,-0.022838660557588052,-0.0006986224491714931
1.825139314,0.1772699356,-0.1284086406,-0.1169185638,0.2481599477,-0.024077872427438744,-0.000933436084188512
1.83514916,0.151720047,-0.09898811579,-0.1501893997,0.2353178181,-0.02521597568362045,-0.0011801479983580584
1.845128314,0.1808004379,-0.0351883173,-0.1895279884,0.2642874844,-0.025885459328108356,-0.0014351225431595764
1.855138084,0.1934585571,0.05731198192,-0.3320684433,0.388561871,-0.025774732930906687,-0.0016936758644938348
1.86514793,0.1321749687,0.08294969797,-0.3651871681,0.3971303848,-0.02507273402320659,-0.001948163521344216
1.875127084,0.1529035568,0.1306642592,-0.4421615601,0.4857566176,-0.024006890735632166,-0.0021930500882095497
1.885136853,-0.1574287415,0.3563933671,0.1010489464,0.402505814,-0.021569223571156544,-0.0024211532762738208
1.895146468,-0.9705467224,0.2078172863,-0.9619603157,1.382214388,-0.01874545786144027,-0.002622920496267796
1.905125853,-0.3885583878,0.2469168603,-0.4747920036,0.6613418203,-0.016476474300656387,-0.0027986671070125155
1.915135622,-0.1971502304,0.2317961454,-0.7547683716,0.813801549,-0.014080570998480032,-0.002951601589395962
1.925145468,-0.1075224876,0.1915636957,-0.604133606,0.6428336867,-0.011961687592482298,-0.0030819410883898167
1.935124622,-0.00653219223,0.2070018947,-0.7143545151,0.7437706818,-0.009973013889631028,-0.0031913859704068358
1.945134391,0.1252737045,0.1592428386,-0.7858576775,0.8115565735,-0.008140001300731213,-0.003282039519381345
1.955144238,0.2717404366,0.06242260337,-0.6981973648,0.7518104858,-0.007030582721077691,-0.0033579671318608195
1.965123391,0.5165328979,0.04008510709,-0.9241943359,1.059503762,-0.006519112657897661,-0.003425574373505915
1.975133238,0.6077384949,-0.08895714581,-0.7886075974,0.9995806093,-0.006763713472980296,-0.003492053902154759
1.985143007,0.6371440887,-0.007911145687,-0.9000477791,1.102769777,-0.007248528083635116,-0.00356218355273172
1.995122161,0.5081295967,-0.01176047325,-0.6014719009,0.7874658363,-0.007346681141035936,-0.0036350074729893265
2.00513193,0.4748511314,0.01836711168,-0.5986347198,0.7643196161,-0.007313615678760525,-0.0037083805653081257
2.015141776,0.5430026054,0.01491856575,-0.5678181648,0.7858065038,-0.007147023426220538,-0.0037807549505593447
2.02512093,0.5792217255,-0.004902750254,-0.5775871277,0.8180028938,-0.0070970487435854535,-0.0038518268454441475
2.035130776,0.5480937958,-0.03849802911,-0.4948344231,0.7394254617,-0.007314266302442262,-0.003923954367578257
2.045140546,0.5137624741,-0.05616180599,-0.4104752541,0.6599969412,-0.007788027891236722,-0.003999539613253788
2.055150392,0.5199666023,-0.07510998845,-0.4150524139,0.6695336319,-0.008445033114480749,-0.0040807848336417065
2.065129469,0.5289173126,-0.1022617519,-0.3858647346,0.6626481592,-0.009330036241769087,-0.004169474226534887
2.075139315,0.504357338,-0.07868234813,-0.4540710449,0.6831893955,-0.010235647529723535,-0.004267398967253556
2.085149161,0.5625829697,-0.06699462235,-0.4883160591,0.7479575194,-0.010964749549849207,-0.004373505322206242
2.095128315,0.4344420433,0.02359750867,-0.4755167961,0.6445253717,-0.011181282790133326,-0.004484004655811078
2.105138084,0.3394036293,0.1146365851,-0.411968708,0.5459437578,-0.010489437116852319,-0.00459246410597739
2.11514793,0.2564353943,0.1982961446,-0.4668388367,0.5683475801,-0.008923232900524007,-0.004689623024638767
2.125127084,0.08461380005,0.3262994885,-0.392865181,0.5176619571,-0.006305722595307855,-0.004765609070714792
2.135136853,0.06262493134,0.3511406779,-0.2816972733,0.4545052381,-0.0029152128068149793,-0.004811758787384379
2.145146469,0.05943393707,0.3676472008,-0.179418087,0.4133856639,0.0006821825188058294,-0.00482293467523405
2.155125853,0.08423614502,0.3397189081,-0.1445569992,0.3786837607,0.0042117215334552035,-0.004798515601335716
2.165135623,0.09824848175,0.2791789174,-0.1346411705,0.3251490072,0.007309233976832745,-0.004740854543916609
2.175145469,0.1152954102,0.2442335635,-0.1569123268,0.3123532351,0.009928873140976213,-0.004654579145126223
2.185124623,0.04758167267,0.2200569361,-0.167195797,0.2804344937,0.012245486339098943,-0.004543938471074705
2.195134392,-0.02225399017,0.2248712778,-0.1581864357,0.2758356034,0.014472300660459701,-0.004410219033046315
2.205144238,0.7290940285,0.1330495328,0.0339384079,0.7419111106,0.016263666757610283,-0.004256387882788366
2.215123392,-0.1742105484,0.1790364981,-0.1013450623,0.2695815358,0.017820844039410255,-0.004086320591659296
2.225133238,-0.6624450684,0.1075000167,-0.6543421745,0.9373117963,0.019254937232672614,-0.00390075916122768
2.235143008,-0.1652145386,0.176841706,-0.2347979546,0.337192693,0.02067803485548799,-0.003700899228218228
2.245122161,-0.1947488785,0.174643293,-0.3858718872,0.4661807791,0.022431796146600867,-0.0034857994285312395
2.255131931,-0.2335109711,0.2317030877,-0.3561763763,0.4848456512,0.02446551305217066,-0.0032510837891819373
2.265141777,-0.2230443954,0.2495213747,-0.3664207458,0.4962598934,0.026874004432199054,-0.0029941334573155135
2.275120931,-0.1789293289,0.2494099587,-0.3829193115,0.4907629075,0.029363460737910983,-0.0027135322945644365
2.285130777,-0.174448967,0.1359793693,-0.3051643372,0.3768926951,0.03129230464957272,-0.002409954859294016
2.295140546,-0.181060791,0.0698633641,-0.2379560471,0.3070618505,0.032322523755403995,-0.0020915699906397934
2.305150392,-0.0935125351,0.03028202057,-0.2265081406,0.2469160439,0.032823743694482724,-0.0017655179383157045
2.315129469,0.0167016983,0.01106637716,-0.2531528473,0.2539444339,0.03303005311686987,-0.0014369378837542797
2.325139315,0.04902458191,0.01279574633,-0.2890262604,0.2934336721,0.033149481207553816,-0.0011057144102846824
2.335149162,-0.04005336761,0.09273636341,-0.2295937538,0.2508338038,0.03367766134359612,-0.0007712496740925797
2.345128315,-0.09692668915,0.08887714148,-0.227437973,0.2627203093,0.034583835819677916,-0.0004306537119918846
2.355138085,-2.829323769,0.7652542591,3.397109032,4.486762401,0.03885866525446972,-6.308244000340226e-05
2.365147931,7.851532459,-2.127046585,-10.58092117,13.34641457,0.03204299952134932,0.0002917749327713839
2.375127085,-1.284525871,-0.07271927595,5.346819878,5.499434299,0.021067098376168197,0.000556771855708581
2.385136854,0.715470314,-0.6019998193,-1.46870923,1.741094011,0.017690207234497355,0.0007507476938211694
2.395146469,-0.6674547195,-0.06101582944,0.4502792358,0.8074466696,0.014371941543066046,0.0009112125764892342
2.405125854,-1.063444138,0.6621542573,0.3409705162,1.298315288,0.017371437448020832,0.0010696022765657154
2.415135623,-0.4917020798,0.2355308235,-0.1680085659,0.5705020441,0.021864247594797926,0.0012659723484833977
2.425145469,-0.2617206573,-0.04349850118,-0.1113035679,0.2877121935,0.022825354581520706,0.0014896403662765048
2.435124623,-0.2473468781,-0.3134153783,-0.477458477,0.6223955934,0.021044505297486478,0.0017085324101220277
2.445134393,-0.4038953781,-0.1982152462,-0.4636356831,0.6460486103,0.018483852859385818,0.0019063672969359838
2.455144239,-0.290848732,-0.2015121728,-0.7282061577,0.8096198792,0.01648324790630208,0.0020813749438014927
2.465123393,-0.3336219788,-0.2061458826,-0.5328052044,0.6615747391,0.014449206649213552,0.002235714807605236
2.475133239,-0.2869501114,-0.2020641863,-0.5236632824,0.6303915729,0.01240614668654436,0.002370123783188497
2.485143008,-0.2621955872,-0.1638309658,-0.3839128017,0.4929261107,0.010574883711173875,0.0024851411860200693
2.495122162,-0.2628574371,-0.2172358185,-0.110152483,0.3583559719,0.008673521648766667,0.002581182586690704
2.505131931,-0.2030391693,-0.1115629375,-0.503098011,0.5538761612,0.007027921851242939,0.0026597664978915297
2.515141777,-0.1987743378,0.0149249658,-0.4929475784,0.5317248415,0.006544256244008261,0.0027276942042005485
2.525120931,-0.1581459045,-0.0003695636988,-0.5511767864,0.5734161783,0.006616881543558158,0.00279336271459922
2.535130701,-0.1910610199,-0.03722776473,-0.6074774265,0.6379020642,0.006428711238464785,0.0028586544062300743
2.545140547,-0.2563610077,-0.07038658857,-0.6265869141,0.6806514519,0.0058901096865034905,0.0029203091564103294
2.555150393,-0.2645778656,-0.09977628291,-0.6030728817,0.66607331,0.005038457617287195,0.002975005794266119
2.56512947,-0.2924451828,-0.0840190351,-0.6089568138,0.6807435525,0.004121403801956546,0.003020709275472101
2.575139316,-0.2393140793,-0.05196494609,-0.6304085255,0.676303551,0.0034408144468671487,0.0030585575955166585
2.585149162,-0.1744852066,0.009994592518,-0.6223964691,0.6464691361,0.003230756058956514,0.003091948292187377
2.595128316,-0.1147851944,-0.0002276711166,-0.7024264336,0.7117433437,0.0032794888653417463,0.0031244316605260215
2.605138085,-0.08278179169,0.1063005626,-0.256424427,0.2896655337,0.0038103714357972116,0.0031599155924543583
2.615147931,0.05702400208,0.09619060904,-0.2466776371,0.2708398544,0.004823824158035194,0.0032031290765684286
2.625127085,-0.0433511734,0.01509067416,-0.4965789318,0.4986959877,0.0053790706892203905,0.0032540372060317125
2.635136855,-0.08858108521,0.04502294585,-0.4810357094,0.4911914372,0.005679932444304137,0.0033093862449296418
2.64514647,-0.08334159851,0.04231916741,-0.7261439562,0.7321350825,0.006117062907813634,0.003368427935745386
2.655125855,-0.1221542358,0.02825418487,-0.6570266485,0.6688826303,0.006469202234385018,0.0034312295285284277
2.665135624,-0.1376085281,-0.01376483589,-0.5643692017,0.5810664106,0.0065417197525101094,0.003496347690311347
2.67514547,-0.1155195236,0.0187067464,-0.6501104832,0.660559114,0.00656645363408555,0.0035619530887819077
2.685124624,-0.05362129211,0.006124328822,-0.5007978678,0.5036975826,0.006690350195898515,0.0036280989322655098
2.695134393,-0.2389411926,0.09388583153,-0.5318880081,0.5906033323,0.007190889497286745,0.0036975729336467165
2.705144239,-0.4548282623,-0.2638548613,-0.9867956638,1.118147494,0.006340207590903189,0.003765295032678631
2.715123393,-0.1806240082,-0.1841749549,-0.4636316299,0.5305654857,0.004104728324677481,0.0038174108446894857
2.725133239,-0.07507228851,-0.02673471719,-0.1446323395,0.1651336042,0.0030491416559117832,0.0038532154130943466
2.735143009,-0.03754520416,-0.04693849757,-0.5110253096,0.5145480851,0.0026804156884576674,0.0038818911887038223
2.745122163,-0.05070114136,0.06642462313,-0.422626853,0.4308088824,0.002777643212370954,0.003909124593860042
2.755131932,-0.06670188904,-0.03784618527,-0.2005728483,0.2147345879,0.002920674993050679,0.003937644018322424
2.765141778,0.07275676727,0.01579429209,-0.2382102013,0.2495738505,0.002810306965680554,0.003966327141740263
2.775120932,0.1016540527,0.06929609179,-0.1851198673,0.2222720406,0.003234871988009384,0.003996490027608479
2.785130701,0.08265304565,0.02274170145,-0.2061983347,0.2233080029,0.0036955105128104572,0.004031175791565903
2.795140547,0.04697132111,0.0222369656,-0.271781683,0.2767057478,0.003920625278038344,0.004069293964756645
2.805150393,0.03053951263,0.01505501941,-0.3644646406,0.3660516216,0.0041072687915305476,0.004109472956426994
2.81512947,0.09303092957,0.04642865062,-0.3892167807,0.4028648356,0.0044140439302665325,0.004151990374322941
2.825139317,-0.1293392181,0.01845270023,-0.442468524,0.4613540183,0.004738770127847445,0.004197799508493526
2.835149163,-0.07409286499,-0.1743513346,-0.2348725796,0.3017503424,0.003958509467020442,0.004241328723175311
2.845128317,0.05778312683,0.07409487665,-0.4702916741,0.4795864878,0.003458272150331664,0.0042783353261472735
2.855138086,0.05978679657,0.0008241757751,-0.4491671026,0.4531293704,0.0038332333545687447,0.004314828469030415
2.865147932,0.03755664825,0.03024630621,-0.4807079136,0.4831205223,0.003988738724477057,0.004353976836994189
2.875127086,0.04817008972,0.01613404602,-0.5121744871,0.5146876434,0.0042201570632157594,0.004394935754611857
2.885136855,-0.01869773865,0.01319864765,-0.589489758,0.5899338815,0.004366963807107988,0.004437913302755367
2.895146471,-0.2062606812,0.04287059233,-0.7863777876,0.8141077208,0.004647579587913813,0.004483029361655119
2.905125855,3.998339176,0.3131691515,-2.660123348,4.812592577,0.006424108249384449,0.004538273673883385
2.915135625,-0.9754972458,0.3161875606,2.31178689,2.529017215,0.009573966217423032,0.004618342196811192
2.925145471,-1.291249275,-2.483553886,-1.234345436,3.059243902,-0.0012735353539969005,0.004659885214149463
2.935124625,-0.7925701141,-1.715968013,-4.235816956,4.638411246,-0.022227373232243254,0.004542625621188458
2.945134394,0.8666753769,-1.513255954,-6.388670444,6.622399855,-0.038389266211710515,0.004239246341993317
2.95514424,0.3471431732,0.2000393867,1.326440334,1.385629135,-0.04496181401337133,0.00382208060349996
2.965123394,2.939835548,0.7498877048,-1.426280141,3.352497526,-0.04022207964594612,0.003397049006926991
2.97513324,1.374186516,-0.05694251508,-4.123518467,4.346842024,-0.03675394232817713,0.003011789944100197
2.985143009,-3.387833595,-1.794358015,-0.1809866875,3.837954317,-0.046019487656016565,0.002597518487360459
2.995122163,-0.007399559021,-0.2385712862,3.259281397,3.268009522,-0.056162944939909976,0.0020876713718757825
3.005131932,-0.005116462708,0.8466506004,2.598205805,2.732675762,-0.05311957820549982,0.0015407249656644389
3.015141779,-0.1559438705,1.135358214,-1.147471428,1.621742101,-0.04319977571310205,0.0010586539677324078
3.025120932,0.5958623886,0.1059195995,1.011542678,1.178766108,-0.03700632510489096,0.0006584594919343117
3.035130702,0.6079473495,-0.9631043673,-4.602738857,4.741558287,-0.04129643629148162,0.00026656317596303076
3.045140548,-0.6850233078,0.9344934821,3.151404142,3.357660356,-0.04143963156886946,-0.00014752447300080075
3.055150394,0.4403553009,-0.2064914852,-1.90134275,1.962563572,-0.03779603763053873,-0.00054409289619731
3.065129471,-0.2851638794,0.0572524555,0.5235358477,0.5989040537,-0.038540671514929535,-0.0009249778454419303
3.075139317,-0.1558952332,-0.06396707892,-0.5869973898,0.610705368,-0.038574277688120634,-0.0013109322283521075
3.085149163,-0.1032390594,0.04089000821,-0.2397819757,0.2642455147,-0.03868977665008974,-0.001697632870982666
3.095128317,0.02606868744,-0.06827296317,-0.5844944715,0.5890454662,-0.03882640601235019,-0.0020844058331229683
3.105138087,0.1099128723,-0.1312326938,-0.91243577,0.928354401,-0.03982490888233448,-0.002478046619269649
3.115147933,0.02136516571,-0.03208089992,-0.7100485563,0.7110939507,-0.040642280843756366,-0.002880778707875124
3.125127087,-0.1352872849,-0.0254124552,0.1558089852,0.2079059456,-0.040929148366115956,-0.003287785634917842
3.135136856,-0.06977653503,-0.02238295227,-0.8607278466,0.8638415291,-0.04116835886013374,-0.0036986741763231305
3.145146471,0.02799606323,-0.1306559145,0.3099286854,0.337506352,-0.041934288928335735,-0.00411458693124472
3.155125856,-0.04916667938,-0.03044131771,-0.2319651544,0.2390645709,-0.042738114579664754,-0.004537076187985576
3.165135625,-0.01061344147,0.1839824319,0.4433072805,0.4800869977,-0.041969659037142504,-0.004961028811189837
3.175145471,-0.06303215027,0.1447219998,0.4382494092,0.4658111783,-0.04032451866672525,-0.005372904833946012
3.185124625,-0.01754951477,0.04040631652,-0.1768751442,0.1822785575,-0.03940080667756627,-0.005770700483601399
3.195134394,-0.08948326111,0.05631649494,-0.07548806071,0.1299124664,-0.03891672017769368,-0.006162670659837634
3.205144241,-0.07773399353,0.02894866653,-0.1456950009,0.1676533099,-0.03848997456732118,-0.006550085245424287
3.215123394,-0.02522468567,0.03648293763,-0.1122615337,0.1207060125,-0.03816349857284715,-0.006932553613647843
3.225133241,-0.02294540405,0.0081498418,-0.09229248762,0.09545058805,-0.03794011492620762,-0.007313446377284182
3.23514301,-0.04941272736,0.06069675088,-0.3687082529,0.3769237177,-0.03759554568162568,-0.007691493634257581
3.245122164,-0.05905437469,0.01022606436,0.07121172547,0.09307578314,-0.037241670833928917,-0.008064899688527622
3.255131933,-0.004013061523,-0.02630757727,-0.366196543,0.3671622276,-0.037322156948628726,-0.008438083034457209
3.265141779,-0.06859397888,-0.07491773367,-0.2722270489,0.2905604359,-0.03782878183553448,-0.00881420769644966
3.275120933,-0.09006595612,0.014850582,-0.1115548313,0.1441419322,-0.03812849151396263,-0.009193202360537034
3.285130702,-0.0132818222,0.05683349818,0.4414882064,0.4453294171,-0.037769720972172995,-0.009573064147786595
3.295140548,0.01796913147,0.05856741592,0.6605495214,0.6633842794,-0.03719214828297288,-0.009948242531344667
3.305150395,-0.07779884338,0.2254972905,0.2391653359,0.3377894995,-0.03577042615829081,-0.01031341463478625
3.315129472,1.308209419,0.3966507912,0.3056459427,1.40077235,-0.03266619435194748,-0.010654881787631977
3.325139318,-0.04291725159,-0.5368151665,-2.097953081,2.1659685,-0.03336770625766708,-0.01098537637557275
3.335149164,-0.2921772003,0.3445611,2.367046595,2.409771659,-0.03432992305693646,-0.011324197797574882
3.345128318,0.05672264099,0.6390978098,-0.3481108546,0.7299620782,-0.029421881184753394,-0.011642292333727714
3.355138087,0.004039764404,-0.2490105629,-0.2880178988,0.3807583094,-0.02746953956909594,-0.011927027323641629
3.365147933,-0.09178447723,-0.2928092182,0.481903255,0.5713076016,-0.030181305853378294,-0.012215565365866014
3.375127087,0.1978244781,0.04818060622,-0.8901550174,0.9131439371,-0.03140189914925566,-0.01252283950913345
3.385136856,0.190747261,-0.1877470464,-0.004491478205,0.2676819837,-0.032100413062432706,-0.012840661247235884
3.395146472,-0.1421852112,-0.1586281359,-0.5398299098,0.5803411508,-0.033833954345809214,-0.013170650096715595
3.405125856,-0.292974472,0.1962336451,0.3234083652,0.4784711647,-0.033646314437398045,-0.013507355854021021
3.415135626,-0.3600873947,0.1943847239,0.1887690127,0.4506463057,-0.03169131442166549,-0.013834363172633313
3.425145472,-0.204413414,0.1796029061,0.5299175978,0.5956968257,-0.029819535130563006,-0.0141422202383068
3.435124626,-0.3193922043,-0.09432087094,0.4187690318,0.5350470155,-0.029394013849415486,-0.014437670800385669
3.445134395,-0.4847574234,-0.05699957907,0.4180009365,0.6426223576,-0.03015135522420358,-0.014735688495109013
3.455144241,-0.5977296829,0.03314977139,0.5986322165,0.8466051097,-0.03027072167520679,-0.01503809633749064
3.465123395,-0.6582660675,-0.01978065819,0.679068923,0.9459598788,-0.030204015455473673,-0.015339839694958925
3.475133241,-0.7628593445,0.009573373012,0.8993570805,1.179359651,-0.030255102131828606,-0.01564243292313132
3.48514301,-0.808382988,0.072331734,0.9454624057,1.246039364,-0.02984517653127341,-0.015943227876257956
3.495122164,-0.7638120651,0.08945654333,0.8159440756,1.121238636,-0.029037921463838,-0.01623702962770312
3.505131934,-0.7180337906,0.08220168203,0.9719237089,1.211183445,-0.028178791786607125,-0.01652339269759957
3.51514178,-0.5612068176,0.08659275621,0.5612333417,0.798394803,-0.027333988620387672,-0.016801229889052485
3.525120934,-0.6191158295,0.03581665084,0.7958253622,1.008922817,-0.026723217458387363,-0.017070952481187396
3.535130703,-0.4540052414,-0.1631681919,0.1273187995,0.4989535998,-0.02736059721228969,-0.01734163572693355
3.545140549,-0.4825973511,-0.002353650518,0.8230564594,0.9541109361,-0.028189021288409912,-0.017619657290208927
3.555150395,-0.4113016129,0.06056363136,0.4407938719,0.6059176575,-0.02789768481646423,-0.017900366935587452
3.565129472,-0.3257684708,0.04221409559,0.499874413,0.5981484391,-0.02738487139090471,-0.018176201378162535
3.575139318,-0.3105211258,0.07648988068,0.4552104473,0.5563188139,-0.026790767129879534,-0.018447346277434894
3.585149165,-0.1941547394,-0.01844546571,0.5113017559,0.5472346696,-0.02650025927335244,-0.018714063787819542
3.595128318,0.07159233093,0.06619367003,-0.1297873259,0.1623324174,-0.026262015955160166,-0.018977325196386265
3.605138088,0.2395038605,-0.7994693518,-2.656815529,2.784812758,-0.029931976415715583,-0.01925856966589337
3.615147934,-0.1014347076,0.168897301,3.134637833,3.140823083,-0.033087940975921666,-0.019573979499904876
3.625127088,0.08372783661,0.5925455093,0.7634948492,0.9700746961,-0.02928866344283332,-0.019885212370650805
3.635136857,0.03099536896,0.07040689886,-0.6779839993,0.6823343371,-0.02597066321099572,-0.020161778918100986
3.645146472,0.5682268143,0.134149313,0.3043324947,0.6584041449,-0.024946898747707204,-0.020416611514073615
3.655125857,0.2854547501,0.1948562264,0.2331705093,0.4169194763,-0.023305262275304595,-0.020657374960038926
3.665135626,0.505358696,0.1696564555,-0.8448843956,0.9989996829,-0.021480918403609803,-0.020881524621533032
3.675145472,0.5563631058,-0.007114143111,-0.139988184,0.573748384,-0.020667406645860913,-0.021092473742984605
3.685124626,0.5270090103,-0.06898081303,-0.5623755455,0.7737978442,-0.02104708828883805,-0.02130061142747739
3.695134396,0.5288791656,-0.08461911976,-0.573870182,0.7849844286,-0.021815838288459722,-0.021515135445760208
3.705144242,0.4355659485,-0.04488631338,-0.2068581581,0.4842755148,-0.02246400300940707,-0.02173675264190825
3.715123396,0.3940191269,0.0234561339,-0.2893955708,0.4894395355,-0.02257093054004635,-0.021961457910543138
3.725133242,0.4332008362,0.02818308771,-0.4813489914,0.6481929515,-0.022312480212108365,-0.022186095925335044
3.735143011,0.4233570099,-0.02587086521,-0.442486763,0.612939634,-0.022300907805557563,-0.02240938077951714
3.745122165,0.2992219925,-0.06375621259,-0.5640666485,0.6416929479,-0.022748109011525665,-0.02263415631770028
3.755131934,0.4049921036,-0.08146481961,-0.4329922199,0.5984458065,-0.023474923504657432,-0.022865497256683517
3.76514178,0.4090909958,-0.07966478169,-0.6845145226,0.8014125354,-0.02428136475218463,-0.023104513802174816
3.775120934,0.4061565399,-0.05393923819,-0.4921140671,0.6403505535,-0.02494799229688541,-0.02335014746983164
3.785130704,0.3118782043,-0.01857238077,-0.3817744255,0.4933200377,-0.025310904610944044,-0.023601687469082193
3.79514055,0.3414916992,-0.05034267902,-0.5227718353,0.626451401,-0.02565581917873339,-0.023856771997211798
3.805150396,0.3411512375,-0.09600435942,-0.2362399101,0.4259228792,-0.02638827483740363,-0.024117248680367326
3.815129473,0.3086433411,-0.1475523263,-0.5785703659,0.6721428935,-0.027603510297735927,-0.024386642770982823
3.825139319,0.3131752014,-0.2032306641,-0.3877706528,0.5382819789,-0.029359152154397664,-0.024671736510430742
3.835149165,0.3170576096,-0.2366759777,-0.3217983246,0.5099953018,-0.031560851023795244,-0.024976636435497353
3.845128319,0.32051754,-0.2212421298,-0.324965477,0.5072298637,-0.033845668680860835,-0.02530298730186576
3.855138088,0.3147468567,-0.1810415685,-0.2502627373,0.4409910101,-0.03585905212708515,-0.02565185137861427
3.865147934,0.2721261978,-0.1972891688,-0.2393035889,0.4126037946,-0.03775256833580488,-0.02602027187093626
3.875127088,0.4419355392,-0.1129888892,-0.2639865875,0.5270317147,-0.03930072459760638,-0.026404735209131083
3.885136858,0.4209623337,-0.0008335337043,-0.3780879974,0.5658272837,-0.039870392734663765,-0.026800977546700598
3.895146473,0.5277853012,0.01246522367,-0.1942439079,0.5625330228,-0.039812178365485756,-0.02719977347616191
3.905125858,0.6122941971,-0.01812587678,-0.4669880867,0.77026658,-0.03984042328385382,-0.0275972154652171
3.915135627,0.601126194,-0.07410049438,-0.3615746498,0.7053933738,-0.040302005619363764,-0.027998319065427175
3.925145473,0.7223205566,-0.07888605446,-0.3482475281,0.8057582373,-0.0410676915163437,-0.02840556813412471
3.935124627,0.7521324158,-0.04807627201,-0.4822530746,0.8947527741,-0.04170117982036489,-0.028818549790862305
3.945134396,0.8948316574,-0.01451009512,-0.3205122948,0.9506115763,-0.04201441735912513,-0.029237536685594173
3.955144242,0.8255286217,0.07224304229,-0.6978392601,1.083372602,-0.041725468403976215,-0.029656648365867292
3.965123396,1.017744541,0.2088498175,-0.4524421692,1.133192885,-0.04032293393590377,-0.030066035187069115
3.975133242,1.206868172,0.282101661,-0.7783913612,1.463559101,-0.037865759589275114,-0.030457363577633234
3.985143012,1.230338097,0.3534091711,-0.773355484,1.495562964,-0.03468510095836033,-0.030820472291325184
3.995122166,1.201150417,0.4039503634,-0.5082464218,1.365376375,-0.030906197244288492,-0.031147745124237257
4.005131935,1.219167709,0.4494274855,-0.5361065865,1.405619166,-0.02663513967568561,-0.03143573286949731
4.015141781,1.262507915,0.5365008116,-0.6281652451,1.508758076,-0.02170064446517899,-0.03167764974726696
4.025120935,1.22053194,0.5204334855,-0.6281409264,1.468029378,-0.016426989405857288,-0.031867890512294314
4.035130704,1.157054901,0.4979755878,-0.4150714874,1.32628808,-0.011329969620238838,-0.032006810886291155
4.04514055,1.093333244,0.4694653451,-0.5395879745,1.306495494,-0.0064880022440261765,-0.03209598846348797
4.055150396,1.200051308,0.4526346922,-0.503780365,1.377968055,-0.0018729625590425533,-0.03213783444853304
4.065129473,1.343020916,0.4442506731,-0.3563532829,1.458784255,0.002602081501208212,-0.032134196481500024
4.07513932,1.550558567,0.4470749497,-0.8339800835,1.816488552,0.0070630980569120995,-0.032085822997197866
4.085149166,1.624257088,0.3853410184,-0.8844394684,1.889161708,0.011229275881223051,-0.031994271074150295
4.09512832,1.569223881,0.4014832079,-0.7812776566,1.798345665,0.015155195943812257,-0.031862623720374954
4.105138089,1.180897236,0.4017351568,-0.6377096176,1.400922187,0.019175211087414924,-0.03169080399834566
4.115147935,1.118021488,0.3686993718,-0.2423734665,1.201938506,0.023031176579599216,-0.031479564277964105
4.125127089,0.8776154518,0.275369972,-0.2604284286,0.9559604956,0.026244810163828732,-0.031233697947856798
4.135136858,0.9833426476,0.05946783349,-0.104683876,0.9906855705,0.02792063470653962,-0.03096260615238949
4.145146474,1.471531391,-0.2810433209,-0.5625905991,1.600280652,0.026811691934546196,-0.030688681366157582
4.155125858,1.503484011,-0.4787737727,-0.9887361526,1.862065433,0.023020438661146947,-0.03044003438278129
4.165135627,1.579299927,-0.564840734,-0.8549995422,1.882619858,0.017797268592589056,-0.030235746472421533
4.175145474,1.335418224,-0.5469124913,-0.2855138779,1.471044962,0.012233028749084251,-0.030085447131544204
4.185124628,0.8944735527,-0.4589070082,-0.7292928696,1.241993023,0.007214414908227628,-0.029988412613962886
4.195134397,0.6537985802,-0.3017278612,-0.3075990677,0.7830130727,0.003407525240207769,-0.029935251030354052
4.205144243,0.4548428059,-0.2309867591,0.2716493607,0.5779534895,0.0007413295846320353,-0.02991448633141755
4.215123397,0.4643509388,-0.2505177259,-0.05982780457,0.5309993329,-0.0016611741191207671,-0.029919075966550412
4.225133243,0.4463016987,-0.3998568654,0.01014995575,0.599311055,-0.004916248869733733,-0.029951995462148058
4.235143012,0.5839111805,-0.4009524584,0.3673238754,0.797898471,-0.008924207041875767,-0.030021265345413006
4.245122166,0.5675144196,-0.3950842023,-0.05397510529,0.6935974735,-0.01289609325526122,-0.030130139413908692
4.255131935,0.555188179,-0.4026160538,-0.1844987869,0.7101925114,-0.016888490902662073,-0.030279207817499626
4.265141782,0.6365725994,-0.3516598344,0.06475639343,0.730125129,-0.020663584020997654,-0.03046715307975881
4.275120935,0.5441944599,-0.2921347618,-0.1089267731,0.6271804933,-0.023875846409024366,-0.030689385975155848
4.285130705,0.574780941,-0.1474785507,0.09438800812,0.6008595086,-0.02607606048255591,-0.030939389524678913
4.295140551,0.5760545731,-0.1150349975,-0.1509952545,0.6065241039,-0.027389920577753697,-0.03120698264300522
4.305150397,0.6010448933,-0.09344762564,0.08432579041,0.6140832691,-0.028433360053407415,-0.03148637386417157
4.315129474,0.6188870668,-0.06518372893,0.2207069397,0.6602890831,-0.029224857304341555,-0.03177406175951942
4.32513932,0.6765124798,-0.0268458426,0.02553749084,0.6775263818,-0.029685458223572197,-0.03206890335264233
4.335149166,0.6921828985,0.05968502164,-0.07847595215,0.6991694658,-0.029521100661093782,-0.03236522762095505
4.34512832,0.6948657036,0.1722205281,-0.09978866577,0.7228112023,-0.028363990063938742,-0.03265404973827958
4.355138089,0.7266691923,0.2631129324,-0.1053600311,0.7799854271,-0.026185196375150772,-0.03292706211597621
4.365147936,0.7056604624,0.3302335441,-0.03529930115,0.7799082783,-0.023215542651273968,-0.03317430903564691
4.37512709,0.6431703568,0.2221520841,-0.2658863068,0.7305581321,-0.0204593720256765,-0.033392228385395996
4.385136859,0.5940469503,0.5031614304,0.3206882477,0.8419644627,-0.016829261659314983,-0.033578853690152184
4.395146474,0.8156740665,0.5956083536,-0.3852767944,1.080977198,-0.011330130403578663,-0.03371978602674399
4.405125859,0.7927463651,0.728323698,-0.6710042953,1.268522358,-0.004724116575200341,-0.03379989178248716
4.415135628,0.7261627913,0.8461229205,0.1706438065,1.127987458,0.0031558069018075927,-0.03380774099126272
4.425145474,0.8977636695,0.7621381283,-0.000958442688,1.17763961,0.011205029614950826,-0.03373586611028076
4.435124628,0.8245179653,0.619459033,-0.2157449722,1.053615329,0.018098615034238475,-0.033589653318922996
4.445134397,0.6207014322,0.4623053968,0.1622409821,0.7907709429,0.023512721061596225,-0.033381393387872646
4.455144244,0.4992299676,0.2579441369,-0.2061719894,0.598558792,0.027117514878675423,-0.03312799293020463
4.465123397,0.1987540722,0.1458029151,-0.1173477173,0.2730057838,0.02913204168127885,-0.03284733146465767
4.475133244,0.7325058579,0.2251884639,-0.4500226974,0.8887041715,0.03098882515233337,-0.032546431125401745
4.485143013,0.2312009335,1.198542595,-7.231076241,7.333377245,0.038114434661190445,-0.03220057729146157
4.495122167,2.099598646,0.4973432124,5.921610355,6.302470464,0.046576187480419765,-0.03177800691110811
4.505131936,2.862657547,-0.7338327169,2.765771866,4.04756874,0.04539258482493505,-0.03131771382811302
4.515141782,3.053331852,1.390435696,-1.350041389,3.616456633,0.04867883217690116,-0.030846893629517938
4.525120936,-2.111974478,3.538299322,-2.512861252,4.826434498,0.0732711350618103,-0.030238414877832867
4.535130705,2.298694134,0.3746911287,1.568834305,2.808136257,0.09285520031716642,-0.029406971756852838
4.545140551,0.9249137044,0.3487807512,4.583955288,4.689323987,0.09647612136873115,-0.02845938307032669
4.555150398,0.3180278242,0.149464339,-0.6121826172,0.7058674397,0.09896979992943278,-0.02748119118584235
4.565129475,-2.274487257,0.7752043009,-7.42063427,7.80000301,0.10358346970795632,-0.02647054384868575
4.575139321,-0.6113042831,0.2068107873,1.140877724,1.310750018,0.10849837960923552,-0.025409090523155604
4.585149167,0.1966077685,-0.225997597,1.912045479,1.935367521,0.10840235110407136,-0.02432351906729177
4.595128321,0.6340200305,-0.2734467983,0.7971639633,1.054620754,0.10591033483650361,-0.023254189418714474
4.60513809,0.4368528724,0.06348192692,0.3353853226,0.5543948969,0.10485948490618938,-0.022199310814816492
4.615147936,1.174078226,-0.1946712136,-1.762167931,2.126403625,0.10420289262793105,-0.02115296971306129
4.62512709,0.4508673251,0.1157661751,0.3926725388,0.6089949711,0.1038091898626473,-0.020115077410544125
4.635136859,0.5179798603,0.01684653759,0.555606842,0.7597933301,0.10447290117289242,-0.01907264960149278
4.645146475,0.5791019201,-0.1799611002,-0.7397212982,0.9565211082,0.10365654410502542,-0.018031001688730335
4.655125859,0.1626293212,0.07513667643,0.8594779968,0.8779500232,0.10313350251633563,-0.01699918304742408
4.665135629,0.5892475843,-0.1524865031,-0.3180599213,0.6867510195,0.10274637552908235,-0.015968777933992748
4.675145475,0.4251717329,-0.1705220044,0.3095846176,0.5528936533,0.10112974282069993,-0.014948393660113201
4.685078231,0.4413074851,-0.265171349,0.1193370819,0.5284973793,0.09896592493562785,-0.013954642937872823
4.695088,0.4322667122,-0.2556152642,-0.5035896301,0.7111934964,0.09635944808741571,-0.01297706200597309
4.705097846,0.3041500449,-0.3032127023,0.481631279,0.6453013881,0.09356255714483663,-0.01202651699378007
4.715077,0.1235596091,-0.2420589626,0.2269325256,0.3540591611,0.09084188218689994,-0.011106416844592558
4.725086846,-0.03599834442,-0.2143423855,-0.3196268082,0.3865227491,0.08855762858256325,-0.010208536106953724
4.735096615,-0.06728757918,-0.2278459072,-0.008949279785,0.2377424349,0.0863445272503476,-0.009333171018209019
4.745075769,-0.08324509114,-0.1889583766,0.2060413361,0.2916985524,0.08426485018239768,-0.00848190239258629
4.755085539,-0.001113131642,-0.04062178731,0.1769504547,0.1815566911,0.08311582786374688,-0.007644181347743244
4.765095385,-0.1058532894,0.4056023657,-0.07925128937,0.4266133669,0.0849425275550843,-0.006803062219365362
4.775074539,-0.02928774059,0.4425817728,-0.3208475113,0.5474299251,0.08917460762430864,-0.005934291366368387
4.785084385,0.0599398762,0.4027150869,0.5842218399,0.7121006869,0.09340525331924894,-0.005020493220995175
4.795094154,0.03099919856,0.405978322,-0.1912841797,0.449854405,0.09745267042670465,-0.004065271356736886
4.805104,-0.01302552223,0.3563396335,-0.2054491043,0.4115299905,0.10126801309549957,-0.0030706896372008864
4.815083077,-0.04387434572,0.2924717367,0.4867677689,0.56956785,0.10450528240635011,-0.0020439758570225644
4.825092923,-0.03477533162,0.2553301156,0.01301956177,0.2580160859,0.10724698849636898,-0.000984172046079316
4.83510277,-0.082552284,0.3176274598,-0.2836017609,0.4337419066,0.11011459732999147,0.00010370606282031
4.845081923,-0.01253481209,0.3995685279,0.2481985092,0.4705471602,0.11369310157611391,0.0012204116978013595
4.855091693,0.007640138268,0.4200661778,0.179069519,0.4567054391,0.11779527902015122,0.0023789844215218884
4.865101539,0.07147343457,0.4491343498,-0.2324104309,0.5107296001,0.12214556073234858,0.0035798698490384874
4.875080693,0.00172534585,0.4508497417,0.07199668884,0.4565654275,0.1266361006556628,0.004821185104721875
4.885090462,-0.003466963768,0.5538774729,0.1753778458,0.580990244,0.13166464431874245,0.006113950499582707
4.895100077,0.01068985462,0.5431649685,-0.1426200867,0.5616786849,0.1371551305572797,0.00745934172503059
4.905079462,-0.01101014018,0.5283162594,0.1426773071,0.5473537312,0.1425014924040228,0.008854742279195844
4.915089231,-0.004682213068,0.5046993494,0.08798408508,0.5123324659,0.1476716162127639,0.010307025172828792
4.925099077,-0.01892511547,0.4788988233,-0.05499076843,0.482417068,0.1525944493300681,0.011809833710383617
4.935078231,-0.003945171833,0.4172133803,0.04607105255,0.4197679252,0.1570656701705703,0.013354906720461364
4.945088001,-0.0298647806,0.3368011713,0.08951663971,0.3497715867,0.16083942628965484,0.014945985169158685
4.955097847,0.02975289524,0.2929394245,0.01550006866,0.29485419,0.16399122948160796,0.01657173758933336
4.965077001,0.003242492676,0.2214332819,0.04912471771,0.2268401419,0.16655773170688912,0.018221037083453347
4.975086847,0.01250740886,0.1594068855,0.05874919891,0.1703480519,0.16846380742003322,0.019897794090125077
4.985096616,0.005235806108,0.1157455146,0.03482818604,0.1209852899,0.1698409134024315,0.02159097014364623
4.99507577,0.007516548038,0.09675239772,0.03722476959,0.1039384839,0.17090118809829136,0.02329112909622587
5.005085539,0.002521410584,0.0870937705,0.07792377472,0.1168922454,0.17182131693600008,0.02500641564947329
5.015095385,0.009652495384,0.05996507406,0.0300321579,0.06775626379,0.17255733512949184,0.026730004285904867
5.025074539,0.002448260784,0.058149077,0.02523994446,0.06343787459,0.17314667478099532,0.028454921062561978
5.035084308,-0.01417267323,0.02633446082,0.06833171844,0.07458949148,0.1735695051299358,0.03019019549729738
5.045094155,0.03126433492,0.06204362959,0.05635070801,0.08945542411,0.17401183071151394,0.03192981349321165
5.055104001,0.01211294532,0.03857447952,0.00606918335,0.04088458024,0.17451541660001507,0.03367416552940781
5.065083078,0.02601677179,0.03698471189,0.0587310791,0.07412206811,0.1748924220945841,0.03541754939277624
5.075092924,0.01130005717,-0.02385754511,0.08027076721,0.08450011727,0.17495812255352616,0.037168524430248095
5.08510277,0.03933636844,-0.08904665709,-0.01790142059,0.09898039139,0.17439304571513872,0.038917000127392805
5.095081924,0.03684493899,-0.1990394294,0.06350135803,0.2121477468,0.17295561800396822,0.04065012303086636
5.105091693,-0.0229383707,-0.2944469452,0.03477096558,0.2973788702,0.1704857756967713,0.042369007538857716
5.115101539,-0.04879564792,-0.3183731139,-0.04422569275,0.3251128524,0.16741865848812038,0.044060193213311664
5.125080693,-0.1410245299,-0.2121944427,-0.06095981598,0.261974233,0.16477135081076286,0.04571768084333913
5.135090463,-0.1168815047,-0.1160965636,0.03481864929,0.16838063,0.1631282920776971,0.047358780847536926
5.145100078,-0.0487877205,-0.03908754885,0.2478466034,0.2556091097,0.16235162546782653,0.04898774517996807
5.155079463,0.1868004352,0.03561558574,0.1016664505,0.215636128,0.16233430143953628,0.05060782811431333
5.165089232,0.2603409886,0.05397746712,0.3002166748,0.4010249982,0.16278270432110298,0.05223500117713114
5.175099078,0.2896992564,0.3713816404,0.7716741562,0.9040635959,0.1649115939015893,0.05387508590727475
5.185078232,-0.5154435635,0.5254386067,-1.023946762,1.261045109,0.1693863475796541,0.05554309122723703
5.195088001,-0.3135060072,0.2048726678,-0.2982769012,0.4787775437,0.17304147115757432,0.057256902909603766
5.205097847,-0.2544900179,-0.2546005249,0.2981967926,0.4674483112,0.1727925870618338,0.058987775741769416
5.215077001,-0.1898093373,-0.7537021637,0.152340889,0.7920241679,0.1677615831577572,0.06068699699675114
5.225086847,-0.08168171346,-0.8852360845,0.437256813,0.9907110316,0.15955882342376132,0.06232521042802033
5.235096617,0.06211170554,-0.8491655588,0.1953573227,0.8735585234,0.15087834265523387,0.06387891274397159
5.245075771,0.2618510425,-0.6056612134,-0.5206203461,0.8404980777,0.14361937245368064,0.06534833176983156
5.25508554,0.1238266081,-0.5080431104,-0.01074409485,0.5230260667,0.13804541094591113,0.066758031478464
5.265095386,0.07358784974,-0.6320880055,0.3842611313,0.7433754337,0.13233914250092757,0.06811128534885481
5.27507454,-0.1195332855,-0.1522572041,-0.144282341,0.2414287813,0.12842559168304696,0.06941239106895038
5.285084309,-0.03003901243,0.2406393141,0.2550735474,0.3519547362,0.12886793393546325,0.07070011544726879
5.295094155,0.06185859442,0.448700428,0.2479429245,0.5163663947,0.13231802626551362,0.07200733106675573
5.305104001,0.04526625574,0.4536803961,-0.4294786453,0.6263599943,0.13683437280681066,0.07335441809937798
5.315083078,-0.0261028856,0.4469542503,0.09768009186,0.4582476,0.1413281240494572,0.07474232058669841
5.325092925,0.004350394011,0.5037607551,0.3641328812,0.6216000156,0.1460863799217863,0.07618080819186494
5.335102771,0.1007036567,0.4114730954,-0.3248147964,0.5338126888,0.1506670548705323,0.07766603628298602
5.345081925,0.02120046318,0.3319732249,-0.1066083908,0.3493150879,0.15437653753103575,0.07918807477563022
5.355091694,-0.03630322218,0.2469283193,0.2263717651,0.3369505823,0.1572738728966286,0.0807478490841984
5.36510154,-0.112665087,0.2673049867,-0.2212944031,0.3648514637,0.15984757099719404,0.0823350174925358
5.375080694,-0.02083896846,0.3259526491,0.08757972717,0.3381561779,0.16280767565185605,0.0839449306901452
5.385090463,0.01819461584,0.3013670743,0.006165504456,0.3019787591,0.16594733841204495,0.08559031156433088
5.395100079,-0.04347398132,0.2269608825,-0.1375074387,0.2689043044,0.16859151839686115,0.08726461431119888
5.405079463,-0.02172113955,0.1411149502,-0.003455162048,0.1428186795,0.1704281034346777,0.08895621780609476
5.415089232,-0.03299430758,0.1033241004,0.02042961121,0.1103714776,0.17165149265022034,0.0906682866743063
5.425099079,0.06902357936,0.07120916247,0.04907512665,0.1106497509,0.1725250182790901,0.09239086378200444
5.435078233,0.0531360805,0.0828133598,0.1926269531,0.216302193,0.17329352551369046,0.09411635203428635
5.445088002,0.07318022847,0.1138248965,0.07520484924,0.154813508,0.17427767727475343,0.09585590575976871
5.455097848,0.02379721403,0.1522779465,-0.140337944,0.2084457217,0.17560950151404953,0.0976070641482939
5.465077002,-0.0375546366,0.1049827561,0.09187030792,0.1444710465,0.17689312359874632,0.09936590313899629
5.475086848,0.00110283494,0.04734967649,0.2570362091,0.2613633886,0.17765553569426196,0.10114039187851104
5.485096617,-0.02205911279,-0.0586868003,-0.07339572906,0.09652812042,0.1775987946990307,0.10291839877025427
5.495075771,0.02202653885,-0.2041400224,0.1372680664,0.2469834796,0.17628740002950372,0.10468414118808926
5.50508554,-0.03212086856,-0.2740172744,0.07264232635,0.2852965552,0.17389427798618753,0.10643676004057395
5.515095387,0.05483183265,-0.3470935524,0.0750541687,0.3593237985,0.17078566581303176,0.10816185679127335
5.52507454,0.2443420887,-0.4760622382,0.03440284729,0.5362106553,0.16667846702441483,0.10984565989807206
5.53508431,0.09899426997,-0.5235965848,0.2188110352,0.5760481909,0.1616752895760645,0.11148903268917544
5.545094156,0.2557215989,-0.6869550943,0.03203201294,0.7337076309,0.1556165716346483,0.11307705402306174
5.555104002,-0.06554403156,-0.5958486199,-0.05655097961,0.6021043192,0.14919623782096328,0.11460261866380075
5.565083079,-0.1664040238,-0.4327048063,0.2259902954,0.5157473821,0.14406423090163165,0.11606585306302014
5.575092925,0.02435970306,-0.3006593585,0.211596489,0.3684596574,0.14039379972584834,0.11748954360304231
5.585102771,0.06728643179,-0.1358487308,-0.2482070923,0.2908420572,0.13820911035002473,0.11888392971554798
5.595081925,0.1152562797,-0.08505497873,0.04852294922,0.1512376806,0.13710689428173917,0.1202576401199905
5.605091694,0.04032866657,-0.0325466767,0.2710914612,0.2760004852,0.13651831157930316,0.12162710267161383
5.615101541,-0.02219873667,0.051824525,-0.08327674866,0.1005663073,0.13661479573528926,0.12299411297904055
5.625080695,-0.03772629797,0.1141402721,-0.03060531616,0.1240482191,0.13744288986970915,0.12436154490380857
5.635090464,-0.01770351827,0.1717996597,0.2088279724,0.270993837,0.138873986202306,0.1257444789539498
5.645100079,-0.006073653698,0.2001737654,-0.01862239838,0.2011298569,0.1407356415900471,0.12714387131619712
5.655079464,-0.01520052552,0.2556354403,-0.02819538116,0.2576344578,0.1430099893651594,0.12855967476288213
5.665089233,-0.02241504192,0.25052315,0.1465826035,0.2911198077,0.14554325464829368,0.13000385042126975
5.675099079,-0.003471821547,0.2633389235,0.01012325287,0.2635562983,0.1481150947587815,0.13147358784835925
5.685078233,-0.005783036351,0.2549065948,-0.0305480957,0.2567956419,0.15070092067724422,0.13296455336621046
5.695088002,-0.03406079113,0.2331829965,0.07484531403,0.2472574941,0.15314375270735311,0.1344852608624407
5.705097849,-0.02657918632,0.2128463984,0.07010555267,0.2256653074,0.15537609570757893,0.13602937910198903
5.715077002,-0.01659277081,0.1733430326,0.01747989655,0.1750104962,0.15730301741704486,0.13758951545687645
5.725086849,-0.02306462824,0.1463056803,0.04625701904,0.1551677833,0.15890283477198283,0.13917210155733484
5.735096618,-0.01531471312,0.09588059783,0.04389858246,0.1065585052,0.16011494912150834,0.1407687487191677
5.745075772,-0.01710961759,0.0564298071,0.03674507141,0.06947850327,0.16087491361480774,0.14237035235550996
5.755085541,-0.009358584881,0.003751982003,0.07028579712,0.07100530795,0.1611761165182716,0.14398218056443202
5.765095387,-0.01136706769,-0.02894650772,0.0415725708,0.05191713764,0.16105001985703649,0.14559489756557792
5.775074541,0.008113905787,-0.08223809302,0.0224237442,0.08562571877,0.16049525573042997,0.14719927247710793
5.78508431,0.01547731459,-0.2688619494,0.4174699783,0.4967972201,0.1587380405701728,0.1487969982536467
5.795094156,0.1200991869,-0.4359307587,0.01283454895,0.4523540281,0.15521060733517084,0.15036828706236705
5.805104003,0.1690139621,-0.238283515,-0.03744316101,0.2945280007,0.15183621647269424,0.1519050329264434
5.81508308,0.4325911403,0.4055861235,-0.4922542572,0.770681161,0.1526709792789554,0.15342438330317323
5.825092926,0.03621415794,0.8203782439,1.088155746,1.363236904,0.1588068365385361,0.15498330578754796
5.835102772,-0.02948892117,0.3068341911,0.7433872223,0.8047616912,0.1644484479803536,0.15660117359590808
5.845081926,0.09418661892,-0.2086919844,-1.79681015,1.811339333,0.16493813607763316,0.15824467331983236
5.855091695,-0.1259496063,-0.2878828645,0.1809997559,0.3626303333,0.16245283631328375,0.15988322732299157
5.865101541,-0.08844087273,-0.4684394002,1.078987122,1.179606065,0.15866750161527463,0.161490409888058
5.875080695,-0.04702523351,-0.8758082986,-0.02936935425,0.8775614551,0.15196027421503874,0.16304031109390218
5.885090464,0.1287245452,-1.217452645,-0.2566757202,1.250857057,0.1414837449639599,0.16450896451710884
5.89510008,-0.06699897349,-1.288256645,0.1120147705,1.294851866,0.12894315106369408,0.16586239920976314
5.905079464,-0.1049299091,-1.219723821,0.1023311615,1.228498332,0.11642910099633735,0.16708673117288908
5.915089234,-0.1177357584,-0.7486997247,0.06381511688,0.7605822478,0.10657736751881669,0.16820285290206355
5.92509908,-0.1120016426,-0.263626188,-0.08489990234,0.2987492734,0.10151075427484847,0.16924431792885547
5.935078234,-0.1162247807,0.153705284,-0.257557869,0.3216668616,0.10096229546043087,0.17025457280093445
5.945088003,0.1015347987,0.2862638235,-0.07102108002,0.3119299373,0.10316429002703661,0.17127620278467867
5.955097849,-0.02535457537,0.4055692852,-0.2865762711,0.4972476834,0.10662686146493074,0.1723261913439773
5.965077003,-0.1192515343,0.4454668164,-0.1357660294,0.4807224019,0.11087317162364368,0.1734114245065753
5.975086849,-0.1620680839,0.4117219448,0.09647655487,0.4528672535,0.11516333536991506,0.174542719819267
5.985096618,-0.05197872967,0.2626520097,-0.03758716583,0.2703713402,0.11853849912199577,0.1757123705083371
5.995075772,-0.002133020665,0.06667741388,-0.08547973633,0.1084306812,0.12018171363931376,0.17690348339136602
6.005085618,0.03082588315,-0.1699594706,-0.006488800049,0.1728541618,0.11966479489814853,0.17810389669841487
6.015095388,-0.01269156672,-0.3228689432,0.007851600647,0.3232136723,0.11719824536234714,0.179289368975669
6.025074542,-0.04345007986,-0.4102720022,0.07963943481,0.4201826565,0.11354018216342111,0.1804406561266677
6.035084311,-0.05706692487,-0.4481362402,0.05801391602,0.4554649692,0.1092439480563608,0.18155566496685074
6.045094157,-0.09216909111,-0.3121464252,0.04114627838,0.3280602816,0.10543879185779904,0.18263013554955013
6.055104003,-0.05730101094,0.05710294843,-0.0331735611,0.08743361899,0.10416231889491291,0.18367917296958192
6.06508308,-0.03812970221,0.5484465361,-0.1314020157,0.565255665,0.1071837313616304,0.18473369222415983
6.075092926,-0.03931229934,0.5550661683,-0.06682014465,0.5604541371,0.11270672747667415,0.18583422703908023
6.085102773,-0.0162377283,0.5140742064,-0.03335571289,0.5154110564,0.11805769326280903,0.18698918531140316
6.095081926,0.183946535,0.2923462987,0.1748952866,0.3871576518,0.12208139006417401,0.18818737763830298
6.105091696,0.112303488,0.1498760283,0.6273145676,0.654674319,0.12429466195524139,0.18942046144541416
6.115101542,0.06433552504,0.1865396202,0.1556167603,0.2513019414,0.12597839637197894,0.1906730588313164
6.125080696,0.05542071164,0.2438189387,-0.4645204544,0.5275399347,0.12812570353921968,0.19194093080383912
6.135090465,0.07967409492,0.261613667,0.4644699097,0.539000899,0.13065533535328216,0.19323610001428607
6.14510008,0.2306237668,0.2643344402,0.5195569992,0.6268967168,0.1332876043848074,0.19455708361865925
6.155079465,0.1942994446,0.2951424718,-0.4548740387,0.5759963054,0.13607922213653706,0.19590114125270164
6.165089234,-0.04211679846,0.2557436824,0.1580715179,0.3035873195,0.1388363437109572,0.19727706190702046
6.17509908,-0.1723543257,0.2004465908,0.4240036011,0.49966379,0.14111954090167217,0.19867821955290355
6.185078234,-0.1236440837,0.08650684357,-0.1959247589,0.2473010404,0.1425513171578757,0.2000936171418477
6.195088004,-0.08221745491,0.02417714149,0.02206039429,0.08849240113,0.1431052777744427,0.20152329554897552
6.20509785,-0.149147138,0.05479914695,0.1897287369,0.2474768855,0.1435005480169107,0.20295773563841266
6.215077004,-0.06797318161,0.1496156454,-0.08313369751,0.1841640748,0.1445204913632801,0.20439483879202025
6.22508685,0.03483653069,0.1544451267,0.02705669403,0.1606205021,0.14604229211496114,0.2058490831499945
6.235096619,0.02937726676,0.1661070436,0.1396131516,0.2189666774,0.14764661870353696,0.20731896222757187
6.245075773,0.00367128849,0.09199617803,0.0725851059,0.1172406616,0.14893444460180788,0.20879877627967575
6.255085619,-0.03748555481,0.03089912236,-0.08303260803,0.09619946247,0.1495495261173217,0.21029266556985923
6.265095388,-0.1064130813,-0.02542108297,0.1133184433,0.1575152212,0.1495769430717551,0.21178975899904334
6.275074542,0.003457993269,-0.1390122175,0.1683959961,0.2183885662,0.1487564904576959,0.2132783166373129
6.285084311,0.02082338929,-0.2158270478,0.003174781799,0.2168525014,0.1469805609188044,0.21475844642182296
6.295094158,0.04232016206,-0.2582674026,0.0438337326,0.2653571998,0.14460775446277785,0.21621782363380165
6.305104004,-0.01249951124,-0.233760193,0.1395664215,0.2725414677,0.1421451942329247,0.2176530000620466
6.315083081,-0.05654881895,0.005516856909,-0.06634521484,0.08734925396,0.14100636532013025,0.21906579566977158
6.325092927,-0.08790023625,0.2908914983,-0.1740922928,0.3502177062,0.14248986631450794,0.22048467247989312
6.335102773,-0.009387180209,0.3711799979,-0.02564716339,0.3721834051,0.14580348317348374,0.22192755849549262
6.345081927,0.05368714035,0.4028400779,0.1659250259,0.4389687365,0.14966551594123362,0.22340182381768842
6.355091696,0.03752616048,0.37452057,0.0007772445679,0.3763966979,0.15355611619881823,0.22491941306445085
6.365101542,0.02816487849,0.3514589965,-0.00391292572,0.3526074271,0.1571895880287241,0.22647467138669047
6.375080696,0.06283317506,0.2789057493,0.2068653107,0.3528876332,0.16033484146597884,0.22805898397703547
6.385090466,-0.04687523842,0.2371361405,-0.06836509705,0.2512063367,0.1629175717796105,0.2296768251313021
6.395100081,-0.09547252953,0.180482626,0.001127243042,0.2041819112,0.16500767331433036,0.23131802785738753
6.405079466,0.01270291209,0.1308821142,0.1879110336,0.2293513644,0.1665612876232708,0.2329724550150107
6.415089235,-0.004261493683,0.05330070481,-0.04190731049,0.06793635355,0.16748310135930022,0.23464430859974153
6.425099081,0.007657453418,0.01349945739,0.02035045624,0.02559322199,0.16781743102749874,0.23632246194619647
6.435078235,-0.01855435222,-0.004535228014,0.1376743317,0.1389929994,0.16786215874021596,0.23799736110667086
6.445088004,0.00802372396,-0.0542377159,0.04431915283,0.07050033532,0.1675680069442014,0.2396761503437372
6.45509785,-0.0209319368,-0.05231524259,-0.01074790955,0.05736329963,0.16703471759153676,0.2413508112156288
6.465077004,-0.04203572869,-0.06425765157,0.08742237091,0.116356002,0.16645306816001254,0.24301477420119577
6.47508685,-0.05644379556,-0.0166349113,0.003624916077,0.05895559641,0.16604820711157553,0.24467891748133186
6.48509662,-0.00425259769,-0.04271197319,0.01319122314,0.04490440523,0.1657511827795948,0.24633953527080732
6.495075774,-0.009790658951,-0.09764366597,0.0730381012,0.1223303181,0.16505086751062178,0.2479900975724882
6.50508562,0.00862108171,-0.1119290367,0.03471755981,0.1175063456,0.16400197227085656,0.24963698169852583
6.515095389,-0.006589695811,-0.1662596166,0.0945558548,0.191380495,0.16260967019187952,0.2512716352454071
6.525074543,0.01919345558,-0.2078771591,0.03468322754,0.2116228444,0.16074288594099267,0.25288502772237886
6.535084312,0.01848492026,-0.2454707623,0.08732318878,0.2611951889,0.15847393195607043,0.2544826710264113
6.545094158,-0.0559188053,-0.1889571846,-0.001295089722,0.1970619386,0.15629965353278785,0.25605808858421697
6.555104004,0.03039102256,-0.09886410087,0.06810760498,0.1238401007,0.1548591301612495,0.2576154143373793
6.565083081,0.05318172276,-0.01689012349,0.09679698944,0.1117283718,0.15428157000226767,0.25915788376276205
6.575092928,0.09946128726,0.1593725085,-0.04210281372,0.1925221833,0.15499468343934028,0.2607057877516039
6.585102774,0.164971143,0.2106612772,-0.01579761505,0.268035849,0.15684667404416727,0.26226652973402437
6.595081928,0.153018117,0.1846859157,0.1110544205,0.2643038325,0.15881928930487563,0.2638415693644336
6.605091697,-0.1176821589,0.1890401542,-0.03981208801,0.226208472,0.160689745119364,0.2654406751784334
6.615101543,-0.2835124731,0.1998511255,-0.1307535172,0.3706970151,0.162636116029634,0.2670588962173928
6.625080697,-0.3368684351,0.06388573349,-0.08990955353,0.3544650298,0.16395205139530272,0.2686884330260484
6.635090466,-0.2352540344,0.01533935219,0.231051445,0.3300977532,0.16434856379863375,0.2703315396863731
6.645100082,0.02003836632,-0.07344352454,0.2670030594,0.2776438747,0.1640577635720231,0.2719751503008483
6.655079466,0.1321701556,-0.01988380402,-0.2694063187,0.300739223,0.16359208894732588,0.2736100221487653
6.665089235,0.2173035294,-0.1020211652,0.06795406342,0.24949328,0.16298196865640374,0.27524448758776826
6.675099082,0.160303697,-0.2044114619,0.240152359,0.353771786,0.1614482967998642,0.2768682362474616
6.685078236,0.07401947677,-0.2810095549,-0.004096984863,0.2906235334,0.15902625125912234,0.2784672686815421
6.695088005,-0.131308198,-0.3351135254,0.09654045105,0.3726432294,0.15594262640443668,0.28004365153534283
6.705097851,-0.1761782616,-0.3764155507,0.1205854416,0.4327450698,0.15238147816629505,0.2815867899377633
6.715077005,-0.09011874348,-0.2734981477,0.08715248108,0.3008623933,0.14913868372477324,0.28309124800257135
6.725086851,0.1599102169,-0.007620260119,0.01771354675,0.1610686673,0.14773170773975655,0.2845770614528312
6.73509662,0.3432585895,0.03405436873,-0.02075004578,0.3455672492,0.14786400740021505,0.2860564838658016
6.745075774,0.325740397,0.1898624003,0.0006122589111,0.3770343647,0.14898125736088144,0.2875376161714125
6.75508562,-0.1635233015,0.2838941216,0.1777601242,0.3727390564,0.15135237227373877,0.2890407628620443
6.76509539,-0.2906803489,0.1910051405,-0.4301261902,0.5531605268,0.1537291884671341,0.29056766098917286
6.775074543,-0.4852390289,0.1338551939,0.05860424042,0.506762849,0.15535010395743845,0.2921098357632911
6.785084313,-0.2961504459,0.07618516684,0.4897508621,0.5773778427,0.15640133180830065,0.2936701158478835
6.795094159,-0.1356319934,0.01349574327,0.08034038544,0.1582174145,0.15685017785797112,0.29523791553339696
6.805103774,0.004088252783,0.00276928395,-0.3483610153,0.3483960099,0.15693158118818948,0.2968083328344344
6.815083082,0.1864457428,-0.04054746777,0.06324672699,0.2010130857,0.15674308112217927,0.29837346086793004
6.825092928,0.2984315753,-0.06472679973,0.338435173,0.4558391494,0.15621619151946037,0.29993979792963743
6.835102774,0.1615408957,0.001714631915,-0.1237201691,0.2034823854,0.1559008204714832,0.3015019195416422
6.845081928,0.0266777724,0.05934184417,0.1636095047,0.176071656,0.15620546646025796,0.30305919789247215
6.855091697,-0.05749882758,0.1416645944,-0.1787176132,0.2351913216,0.15721148046905714,0.304627813512196
6.865101544,0.09307266772,0.08803457022,0.09428501129,0.1590668739,0.15836110721599417,0.3062072301722567
6.875080697,-0.01531904936,0.0811380893,0.12068367,0.146227942,0.15920520714237765,0.3077917515915708
6.885090467,-0.08511914313,0.09578450769,-0.1809177399,0.2217006293,0.16009068439421403,0.30938979080968404
6.895100313,-0.1108843237,0.1241446584,-0.03718471527,0.1705577102,0.16119141293594869,0.3109977829681
6.905079467,-0.07482279837,0.119244732,0.2789402008,0.3124506247,0.16240582304033252,0.3126123962939908
6.915089236,0.07280687988,0.1484065652,-0.2237634659,0.2782003577,0.16374538686909368,0.3142447454291227
6.925099082,0.08432030678,0.2244195491,0.1019058228,0.260497303,0.16561135286355438,0.31589315055101563
6.935078236,0.06119666994,0.2412632555,0.4202747345,0.4884504512,0.167934913074682,0.31755740532797694
6.945088005,0.06154167652,0.2038203478,-0.5614156723,0.6004312361,0.17016250510204228,0.3192495438556996
6.955097852,-0.03441167623,0.1773701459,0.2047605515,0.2730773069,0.17207033436193803,0.3209623930364046
6.965077005,-0.05501645803,0.1305087209,0.5016946793,0.5213030674,0.17360651952057005,0.3226871741431308
6.975086775,-0.06274158508,0.1005840898,-0.3961000443,0.4134596844,0.1747631124624503,0.3244307240886981
6.985096621,-0.004643395543,0.05276099592,0.05401706696,0.07565135383,0.1755305928089073,0.32618391711096595
6.995075775,0.01288095117,-0.002046666807,0.3628463745,0.3630807062,0.17578363585901993,0.3279368265061001
7.005085621,0.03089475632,-0.06288396567,-0.1279840469,0.1459068037,0.17545866304313124,0.32969476716644835
7.01509539,0.005031332374,-0.1147188172,0.003705978394,0.1148888837,0.17456978162798834,0.3314466191037419
7.025074544,-0.002211362123,-0.1799622327,0.2383365631,0.2986563454,0.17309944783907147,0.3331813414946984
7.03508439,0.01453103125,-0.1901390254,-0.0154466629,0.1913180579,0.17124711954007785,0.33490476954974535
7.045094159,0.0004479140043,-0.09366504103,-0.137547493,0.1664110975,0.1698267129669654,0.3366118046874154
7.055103775,-0.001363500953,0.005036007613,0.1880731583,0.1881455112,0.16938314167148769,0.33830948488158885
7.065083083,-0.008251309395,0.100253433,0.05400180817,0.1141710568,0.16990849955000012,0.34000243277637626
7.075092929,-0.007714480162,0.1273676902,-0.0704908371,0.1457772267,0.17104772574478963,0.34170889243034736
7.085102544,-0.05038021505,0.1493364871,0.01091766357,0.1579833783,0.17243257688662195,0.3434279452250592
7.095081929,0.007269248366,0.141639024,-0.015417099,0.1426609338,0.17388445521204132,0.34515596072274424
7.105091698,0.009413182735,0.1528399885,0.09710788727,0.1813246036,0.17535828865727784,0.34690388031827324
7.115101544,0.01152001321,0.1084156632,-0.001057624817,0.1090311208,0.17666585307735116,0.3486657340417961
7.125080698,-0.01964214444,0.114189893,0.02288246155,0.1181048371,0.17777656064063888,0.35043425175710785
7.135090467,0.01604312658,0.1005205661,0.07555007935,0.1267658495,0.17885116168937643,0.3522191323168678
7.145100314,-0.02258446813,0.09148834646,0.03723812103,0.1013254825,0.17981215160805733,0.3540142147621778
7.155079467,0.01801301539,0.07068156451,0.0204782486,0.07576088008,0.1806213107848404,0.3558126250959472
7.165089237,-0.006075918674,0.0549426116,0.05878257751,0.08069076017,0.18125004533949068,0.35762374961814347
7.175099083,-0.006210148335,0.03922770172,0.03244113922,0.05128163452,0.18172136050654317,0.35944039355560464
7.185078237,0.008223906159,-0.00472926395,0.01089382172,0.01444555024,0.1818934931181763,0.3612546778661089
7.195088006,0.008033767343,-0.005240492988,0.07553195953,0.0761385651,0.18184359563620853,0.3630751399836908
7.205097852,-0.02311864495,0.006190602668,0.0468006134,0.05256512837,0.1818483508619985,0.3648953901716344
7.215077006,-0.008720323443,-0.008381652646,0.02525424957,0.02800130825,0.18183741844942242,0.36671002832141797
7.225086775,0.01277446747,-0.01559711434,0.04440689087,0.04876913934,0.18171740749020507,0.36852957823466354
7.235096621,0.003198504448,-0.03007570468,0.04201316833,0.05176760335,0.18148881854781704,0.37034739742910444
7.245075775,0.0009243190289,-0.02289132029,0.03962230682,0.04576892077,0.1812245354982683,0.3721571836380456
7.255085621,-0.01110649109,-0.02282990888,0.0539855957,0.05965738368,0.1809957042668071,0.37397006804711136
7.265095391,-0.00380396843,-0.04922354594,0.04440975189,0.06640522354,0.18063508501158032,0.3757799885599089
7.275074545,0.008286312222,-0.04911828041,0.03962135315,0.06364840977,0.18014440089668637,0.3775801255848686
7.285084391,-0.01540401578,-0.07065948844,0.05159950256,0.08884005669,0.17954492238648032,0.37938034295182294
7.29509416,-0.01053051651,-0.06092512235,0.05638790131,0.08368009157,0.17888635660749894,0.38117425010437506
7.305103775,-0.0006317943335,-0.05352107435,0.04442024231,0.06955618226,0.17831357542390827,0.3829619670032054
7.315083083,-0.0004938095808,-0.04601245373,0.04681873322,0.06564589497,0.17781693755738978,0.3847389350418246
7.325092929,0.01165124774,-0.05770352483,0.04921722412,0.07673189364,0.17729784707082732,0.3865162571950504
7.335102545,0.01180145144,-0.05730140954,0.03964233398,0.07066994011,0.1767222694552529,0.388288059906401
7.345081929,-0.004917114973,-0.07352925092,0.03006362915,0.0795898898,0.17606946475540092,0.39004838200025804
7.355091699,-0.009525835514,-0.06573982537,0.03485584259,0.07501597126,0.17537243904451325,0.3918073083129577
7.365101545,-0.004430875182,-0.07458850741,0.03486156464,0.08245245164,0.17467010654423096,0.39355924430035333
7.375080699,-0.01612092555,-0.06899856031,0.03007793427,0.07697640999,0.1739536678136378,0.3952987294665425
7.385090468,-0.001540765166,-0.06575910747,0.04923534393,0.08216296772,0.17327922125090955,0.39703658997091185
7.395100314,-0.001332566142,-0.06251334399,0.03966236115,0.07404591009,0.17263722750833102,0.3987678751613853
7.405079468,-0.01301272213,-0.04736505449,0.0348777771,0.06024316276,0.17208898077847834,0.40048791312155047
7.415089237,-0.003386497498,-0.05854637548,0.03248882294,0.06704230055,0.17155890630424867,0.4022078311050685
7.425099083,0.01600395143,-0.05768847093,0.04206848145,0.07316996153,0.1709771598480498,0.40392219774088367
7.435078237,-0.01723825932,-0.07601287216,0.03967666626,0.08746057491,0.17031004670169883,0.4056250765370785
7.445088007,-0.0002714246511,-0.05360757932,0.03249740601,0.06268913486,0.16966131124839334,0.4073265940869126
7.455097853,0.004703730345,-0.0813626498,0.03729152679,0.08962512947,0.1689857956443554,0.40902149678108357
7.465077007,-0.009394139051,-0.06369493157,0.03250598907,0.07212443055,0.16826201967267604,0.4107042207236897
7.475086776,-0.009170994163,-0.06754405797,0.03729724884,0.07770065425,0.16760518368813157,0.41238519728384865
7.485096622,0.00300526619,-0.07123778015,0.02533054352,0.0756669636,0.1669105912745425,0.4140594229798222
7.495075776,-0.001524314284,-0.06554058939,0.04448795319,0.07922796457,0.16622812506778822,0.4157216442566934
7.505085545,0.005774199963,-0.05980686843,0.05167007446,0.07924644782,0.16560077551903052,0.41738240957789235
7.515095391,0.01070429385,-0.0684164241,0.03970050812,0.07982179738,0.1649590278131114,0.41903683594046487
7.525074545,-0.001177325845,-0.05791528523,0.04209423065,0.0716064984,0.16432868602186776,0.42067984234379846
7.535084391,0.01819390059,-0.05696312338,0.03491592407,0.06924548503,0.16375372843241218,0.4223218695657962
7.545094161,-0.005623519421,-0.06069821864,0.05646514893,0.08309158056,0.16316484694665642,0.42395805943993226
7.555104007,-0.0006435364485,-0.04798231274,0.03970718384,0.06228464436,0.16262090925550043,0.42558859206422084
7.565083161,0.006598174572,-0.07094821334,0.03252506256,0.07832665305,0.16202749623797377,0.42720845028135773
7.57509293,-0.0005167424679,-0.05807932466,0.02773761749,0.06436497806,0.16138172831296438,0.42882707609646986
7.585102545,0.002006918192,-0.05005224049,0.0421037674,0.06543685298,0.16084055064471495,0.4304397365748643
7.59508193,0.004523143172,-0.05885171145,0.04689407349,0.07538591973,0.16029715341249956,0.43204211496826583
7.605091699,0.01168726385,-0.05092211813,0.02055644989,0.05614465142,0.15974774807432898,0.43364390273502124
7.615101545,0.00460614264,-0.04783092812,0.037317276,0.06084072093,0.1592534966818323,0.43524047940193
7.625080699,0.01659265161,-0.0470556505,0.02294921875,0.05492009626,0.15878005279154128,0.43682733228561066
7.635090469,0.007081240416,-0.07019624114,0.03252696991,0.07768951028,0.15819322055785062,0.4384137470667979
7.645100315,0.002368509769,-0.05987053365,0.03970718384,0.07188011607,0.15754224636516834,0.43999397876711666
7.655079469,0.009670957923,-0.0685210377,0.03731441498,0.07861949885,0.15690162673376648,0.4415629206841221
7.665089238,0.007275164127,-0.06047155708,0.04449462891,0.07542883554,0.15625603369553728,0.443130238604861
7.675099084,0.009660169482,-0.05727867037,0.04209899902,0.07173904566,0.15566670287391754,0.4446913878833404
7.685078238,-0.00229921937,-0.07310416549,0.0492811203,0.0881937313,0.15501614767491573,0.44624156388873326
7.695088007,0.002558544278,-0.0912193507,0.05167770386,0.1048718321,0.1541937274557509,0.44778912360002165
7.705097853,0.01456731558,-0.07819806039,0.04448986053,0.09113995295,0.15334580635838613,0.4493283352862173
7.715077007,0.01696716249,-0.07222927362,0.04688262939,0.0877663575,0.15259523759243854,0.4508548516824703
7.725086776,0.004831805825,-0.07823906094,0.04927349091,0.09258819531,0.15184216095705833,0.4523785256996911
7.735096623,0.009507805109,-0.07923017442,0.05644798279,0.09774555569,0.1510540394804781,0.45389449801132153
7.745075776,0.009454786777,-0.06602519006,0.04686927795,0.08151961685,0.1503292767273697,0.4553982731233644
7.755085546,-0.004927754402,-0.08868382871,0.03010654449,0.09378437108,0.14955497587996303,0.456899159320975
7.765095392,-0.01456961036,-0.06347603351,0.02770900726,0.07077619275,0.14879342748586133,0.4583923701069939
7.775074546,-0.01219271123,-0.0551879406,0.05164432526,0.07656048149,0.14820134444991348,0.4598742483901649
7.785084392,-0.0001187473536,-0.06828096509,0.03967380524,0.07897034327,0.14758339208404078,0.46135462822109263
7.795094161,-0.01911684871,-0.03857239336,0.05403614044,0.06908826172,0.14704860336656145,0.4628292273283274
7.805104007,0.0145085156,-0.04012015834,0.06361198425,0.07659379003,0.14665475320462942,0.4642991900128077
7.815083161,0.01464036107,-0.03222515061,0.01572704315,0.03873164586,0.14629378071503463,0.465760879279837
7.825092931,0.00262850523,-0.007715847343,0.04924583435,0.04991588465,0.1460938806134946,0.46722424590020534
7.835102546,0.0122102499,-0.02405726537,0.04206085205,0.04996956569,0.14593486230069025,0.46868579354295775
7.845081931,0.0146509558,-0.0331235528,0.0205116272,0.04162387663,0.14564954760112353,0.4701407100861618
7.8550917,0.00746306777,-0.006279408932,0.02529811859,0.02711315477,0.14545234032869694,0.4715976414129825
7.865101546,0.0003496259451,-0.02036759257,0.06121253967,0.06451306905,0.14531897413799855,0.4730529294524971
7.8750807,0.007597774267,-0.01778322458,0.04684734344,0.05068178014,0.1451286176982157,0.47450214007642844
7.885090469,0.005209267139,-0.02949873358,0.0492401123,0.05763592982,0.14489197695869108,0.47595365965530756
7.895100315,-0.01630099118,-0.02453697473,0.0348739624,0.0456506155,0.14462153239934908,0.47740265247710434
7.905079469,0.007671639323,-0.02443749085,0.05163383484,0.05763764316,0.1443771705323038,0.47884463375828207
7.915089238,0.01014898717,-0.01939111575,0.03966522217,0.04530283833,0.1441578134184749,0.48028871802716505
7.925099085,0.01267282665,-0.03360019252,0.07557487488,0.08367278641,0.1438925959744186,0.48173038829032017
7.935078238,0.00795057416,-0.02393030375,0.03487586975,0.04303716252,0.14360554316219648,0.48316488224914994
7.945088008,0.01272918284,-0.04521430656,0.03247928619,0.05710752705,0.1432594823392251,0.4846006087123066
7.955097854,-0.006469815969,-0.02115778998,0.03008842468,0.03734734121,0.14292729510669386,0.48603295149704157
7.965077008,0.003184095025,-0.02577960491,0.03248214722,0.04159106128,0.1426930973607108,0.48745807643802785
7.975086777,0.01037685573,-0.02316950262,0.03726673126,0.04509228587,0.14244811273114508,0.4888851752607278
7.985096623,-0.003906935453,-0.03496862575,0.03247928619,0.04788499727,0.1421571358752891,0.49030960261539885
7.995075777,0.003240168095,-0.0179405883,0.0205078125,0.02743963869,0.14189314127777714,0.49172689334512554
8.005085546,-0.003906592727,-0.02259359881,0.02290248871,0.03240765593,0.1416902723529902,0.4931461955764632
8.015095393,0.0008602887392,-0.02963702753,0.03487014771,0.04577139607,0.14142886206380142,0.4945631851856054
8.025074546,0.01052384079,-0.02476725727,0.04684257507,0.05402217227,0.141157407722864,0.4959731709965558
8.035084316,-0.01097851992,-0.02463398501,0.02768993378,0.03865350631,0.14091016018639546,0.4973848867361713
8.045094162,-0.001353904605,-0.03399530426,0.04205417633,0.05409313742,0.14061672510805442,0.4987939071194997
8.055104008,0.02015775442,-0.02905092388,0.04444789886,0.05679706819,0.14030118359077326,0.5001998796218585
8.065083162,0.0201036185,-0.01216058061,0.02289962769,0.03280896441,0.14009555561583456,0.5015989407426787
8.075092931,0.005802109838,-0.03355932608,0.03247928619,0.0470616285,0.13986673276350034,0.503000119660373
8.085102777,0.005806282163,-0.02371434122,0.04923725128,0.05495807316,0.13958008246873624,0.5043987294532054
8.095081931,0.01059156656,-0.03067777306,0.03965950012,0.05124629735,0.1393086888263434,0.5057902664520175
8.1050917,0.0177551806,-0.03994996101,0.03247356415,0.05445895878,0.13895520517482635,0.5071829451020136
8.115101547,0.01300373673,-0.02063233778,0.02050304413,0.03186165956,0.13865199540392822,0.5085723479039596
8.1250807,0.003470629454,-0.02764550224,0.03965759277,0.04846693437,0.13841110942789367,0.5099547754608454
8.13509047,0.01069256663,-0.03219821304,0.0468378067,0.0578345575,0.13811159851494453,0.5113387398139879
8.145100085,0.01790316403,-0.02245408297,0.03965568542,0.04896205174,0.13783807429398148,0.5127198148060845
8.15507947,0.00830039382,-0.02696370333,0.04204845428,0.05063605773,0.13759149473631374,0.5140941236609534
8.165089316,0.005890876055,-0.01259119809,0.04444313049,0.04656643145,0.13739352550043407,0.5154704025133917
8.175134778,0.01066114008,-0.02909711748,0.02528953552,0.03999828447,0.13718413630548285,0.5168495322472519
8.185078239,0.02031522989,-0.03377463296,0.04444313049,0.05940224108,0.13687155490623196,0.5182120632859476
8.195088008,-0.008428156376,-0.02876179293,0.04204750061,0.05163590669,0.13655856731760965,0.519580549466499
8.205097855,-0.01564691961,-0.02139337361,0.04443645477,0.0517407097,0.1363075445459472,0.5209462234821184
8.215077008,0.005862981081,-0.02838271111,0.0396490097,0.04911208413,0.1360591829633663,0.5223052181050807
8.225086855,0.003370255232,-0.03534869105,0.04203891754,0.05502871221,0.13574021217100773,0.5236655532850746
8.235096624,0.0201266706,-0.03988717496,0.03485488892,0.05666509399,0.1353636653513702,0.5250223968795762
8.245075778,0.008092656732,-0.0252899304,0.06358623505,0.06890777141,0.1350384591655394,0.5263715891008168
8.255085624,-0.01116125286,-0.04183834419,0.01809310913,0.04692953449,0.1347024873200936,0.5277216217679244
8.265095393,-0.001614689827,-0.01754518598,0.05639839172,0.05908654131,0.13440527961039048,0.5290684750594643
8.275074547,0.01498501003,-0.01023793966,0.05400180817,0.05696982727,0.13426665356570902,0.5304090343577853
8.285084316,-0.004193469882,-0.01475387439,-0.02261352539,0.02732459569,0.13414157242294328,0.5317523865277086
8.295094162,0.007869794965,-0.007330663502,0.04681873322,0.04803817315,0.13403104101130325,0.5330945698086557
8.305103778,0.01011130214,-0.007342159748,0.06117916107,0.06244225725,0.13395760634811907,0.5344358015348692
8.315083086,0.0172470957,-0.02875975892,0.008506774902,0.03459698343,0.1337774702652296,0.5357717069308333
8.325092932,0.01252497733,-0.02617233619,0.05878829956,0.06555860282,0.13350253935897535,0.5371094227984419
8.335102778,0.0004448443651,-0.02847414091,0.05160045624,0.05893709928,0.13322903794886862,0.538444393804536
8.345081932,0.01242029667,-0.01898761839,0.0204782486,0.0305639017,0.1329922238462858,0.5397727252893001
8.355091701,0.02444009483,-0.0164569132,0.03962898254,0.04938222843,0.13281482805952127,0.5411030588833742
8.365101547,0.002817243338,-0.03776302934,0.03723621368,0.05310855726,0.13254346142204412,0.5424311566896413
8.375080701,-0.002029716969,-0.03990288451,0.04441642761,0.05974260611,0.1321559413646142,0.5437518947416993
8.38509047,0.009936973453,-0.02288728952,0.05638504028,0.0616590969,0.13184168379585914,0.5450731723639017
8.395100086,0.007536143064,-0.03230993822,0.03722858429,0.04986675294,0.13156543226888817,0.5463914744056395
8.40507947,-0.006934449077,-0.02253608778,0.0348367691,0.04206616595,0.13129176749172414,0.5477030508724275
8.41508924,-0.00439620018,-0.03417266533,0.0324420929,0.0473242752,0.1310079467039152,0.5490158307775096
8.425099086,0.01476803422,-0.03161650151,0.05159378052,0.06228656509,0.13067867698964686,0.5503255521792257
8.43507824,-0.001974388957,-0.04094099998,0.02286243439,0.04693351252,0.1303166457490349,0.5516278084386702
8.445088009,-0.004397630692,-0.02628076449,0.05158996582,0.05806498352,0.12998020858197634,0.5529305641303103
8.455097855,0.01943783462,-0.01410827786,0.04201030731,0.04839151619,0.12977806453497084,0.5542306342858737
8.465077009,-0.002147957683,-0.03065878525,0.0324306488,0.04468021729,0.12955469582651966,0.5555245950623199
8.475086855,0.0168377459,-0.01611363143,0.03721809387,0.04391292881,0.12932060348251231,0.5568202460019637
8.485096624,0.0095410496,-0.02789057046,0.03242778778,0.0438232469,0.12910036753453819,0.5581136131142819
8.495075778,0.01433113217,-0.01348156855,0.03481960297,0.03999423447,0.1288939380612931,0.5594008955676137
8.505085624,-0.01436963677,-0.0134036988,0.04918479919,0.05296498914,0.12875937936837195,0.5606904305820437
8.515095394,0.009534984827,-0.01554374769,0.0372133255,0.04144098965,0.12861450072764585,0.5619785572539281
8.525074548,-0.009518802166,-0.01530465111,0.04200172424,0.04570541302,0.12846058026650656,0.5632612531653296
8.535084394,-1.731514931e-05,-0.01042154431,0.04439640045,0.04560317159,0.1283318226393465,0.5645464793688585
8.545094163,-9.115040302e-05,-0.02701576799,0.03960704803,0.04794349051,0.12814445321529458,0.565830113506501
8.555103778,1.47819519e-05,-0.02688921615,0.05636405945,0.06244947847,0.12787466914638335,0.5671114399302402
8.565083086,0.01190510392,-0.01469390094,0.04678440094,0.0504620887,0.12766718377986275,0.568386505358861
8.575092932,-0.004809647799,-0.02182466909,0.03481578827,0.04137134281,0.12748441114879247,0.5696635194448063
8.585102548,-0.002425551414,-0.01932002604,0.03481578827,0.03989092401,0.12727848984944828,0.5709385588498255
8.595081932,0.009585827589,-0.03109866008,0.03481674194,0.04765732125,0.12702691613466482,0.5722074644996211
8.605091702,0.002324968576,-0.007040321827,0.03481197357,0.03559276772,0.1268360349162032,0.5734780193753913
8.615101548,-0.00247593224,-0.02369429544,0.03720474243,0.04417853253,0.12668221052334738,0.5747468586729115
8.625080702,0.01653124392,-0.02351272851,0.01565551758,0.03272958384,0.126446667442408,0.5760098647004452
8.635090471,-0.01214924455,-0.01377558708,0.0276260376,0.03317482322,0.12626004372968053,0.5772746326022364
8.645100317,-0.002578154206,-0.004065204412,0.04438591003,0.04464618433,0.126170751942004,0.5785380292974021
8.655079471,0.01656012237,-0.01596704498,0.03002166748,0.03782174899,0.1260707994911794,0.5797966079408774
8.66508924,0.004570648074,-0.01828307658,0.03480529785,0.03957992511,0.12589938158866065,0.5810576895946261
8.675099086,0.2401582599,0.910703361,-0.5852880478,1.108881734,0.13036587639582045,0.5823402774784134
8.68507824,-0.4521254301,-2.148782492,-1.863801003,2.880180164,0.12418838523960297,0.5836103955675215
8.69508801,-3.691962242,-0.7690415382,-2.639556885,4.603180491,0.10958501151821556,0.5847804045343538
8.705097856,-3.428358078,-0.6648441553,-0.6240844727,3.547553846,0.10240852403144583,0.5858414158562777
8.71507701,-1.123918891,-2.51501298,-1.122472763,2.974630912,0.08654238200586735,0.5867842009511706
8.725086779,-0.9750214219,-1.542185664,3.007064342,3.517305696,0.06623657139909106,0.5875488419669932
8.735096625,0.04939356446,-1.241970181,7.631207466,7.731769335,0.052302085774864907,0.5881421188186723
8.745075779,2.079814196,-1.310933232,5.620846272,6.134988658,0.03956417762213883,0.5886004926135939
8.755085625,2.089433908,-0.8141964674,4.777602196,5.277701459,0.02892806711162964,0.5889432910245835
8.765095394,0.231343925,1.241749287,-5.337649345,5.485067168,0.031067919591376943,0.5892435640084956
8.775074548,-0.951492548,2.273599625,-6.339369774,6.801632337,0.048608023669666864,0.5896411132624443
8.785084394,-1.832928896,1.843943357,-1.475507736,2.989461243,0.06921600924376906,0.5902308134747255
8.795094164,-2.068237543,1.077942491,9.789578438,10.06356858,0.08383971189613641,0.5909968397576227
8.80510401,-0.637237072,-1.082435846,-10.0673275,10.14538424,0.08381722300034974,0.5918359498071958
8.815083164,-4.094621181,1.635421395,-2.025726318,4.852225559,0.08657638697697247,0.5926861418444855
8.825092933,-1.123046756,0.8924939632,4.738037586,4.95043227,0.09922831137053939,0.5936160728992722
8.835102548,2.787099123,0.3761408925,-3.024228096,4.129813442,0.10557758461110787,0.5946410869835254
8.845081933,-0.2807307243,2.68761301,-6.389231682,6.937171968,0.12086477448025693,0.5957709647243657
8.855091702,4.221335411,0.8748862147,-0.2345895767,4.317421778,0.13869467163121968,0.5970700297730377
8.865101548,0.7301506996,1.74555099,2.045723915,2.786584763,0.15180975806707958,0.5985239820748367
8.875080702,1.184954643,1.684313178,2.439562798,3.19256872,0.1689233294328562,0.6001243045113653
8.885090472,-0.3709152639,1.763692141,-4.27580452,4.640117713,0.18618019953383938,0.6019015568369378
8.895100318,-2.140292645,1.991920352,-1.60340786,3.334593837,0.20497675087914408,0.6038592672546698
8.905079472,-1.728204489,1.508319974,1.340284348,2.656705108,0.22244146950422586,0.6059919033764756
8.915089241,-0.8230956793,0.7952863574,0.2413215637,1.169702092,0.2339707531263514,0.6082761938351299
8.925099087,-0.5691429973,0.8446709514,0.8845214844,1.348988889,0.24217861318018188,0.6106592847499926
8.935078241,-0.2378535867,-0.5267906189,-3.936876297,3.979080002,0.2437647015759762,0.6130839363366037
8.94508801,1.345651746,-1.913648009,-0.8391466141,2.485355983,0.23155058811399842,0.6154628344625861
8.955097856,0.7148041725,-1.485356569,3.452870369,3.826165565,0.21453883192445944,0.6176954776609934
8.96507701,0.5319011807,-1.570254683,2.242007732,2.788407666,0.19929262430053932,0.6197603215768501
8.975086779,-0.2193658352,-1.513992429,-0.5874595642,1.638719983,0.18385632373552102,0.6216779378080671
8.985096626,-0.8344190717,-1.660522819,-0.6714019775,1.975948338,0.16796811776969597,0.6234387922232312
8.995075779,-1.411429167,-1.54408145,0.4753932953,2.145301517,0.15197849961729432,0.6250351903465997
9.005085549,-0.9072949886,-1.775132298,0.3687419891,2.027375034,0.13536621651813546,0.6264733176062152
9.015095395,-0.3517493904,-1.714384437,0.2900094986,1.77396368,0.11790145395225063,0.6277409027953087
9.025074549,-0.1042968631,-1.611335516,1.220466614,2.024059964,0.10130751816632104,0.6288346628407852
9.035084318,0.1919411123,-1.042187095,-3.772665977,3.918673744,0.08802694398012782,0.6297822599556977
9.045094164,0.7026249766,-0.5693168044,-0.2353363037,0.9344445716,0.07996149104943037,0.6306230291379112
9.05510401,0.95522964,-0.03775176406,1.123606682,1.475256193,0.07692315960856758,0.6314082247343364
9.065083164,0.6913356781,1.275655866,-3.423478127,3.718258381,0.08309977744381294,0.6322066715005255
9.075092934,0.504432857,0.8339437842,-0.09122276306,0.9788954669,0.09365808108910409,0.633091324255329
9.08510278,0.3514842391,0.9324676394,1.454325676,1.762980499,0.10249883425054168,0.6340730745125214
9.095081934,0.4255855083,0.9068038464,-0.3925304413,1.075870061,0.11167602095284503,0.6351417164440225
9.105091703,0.59434551,0.6918544769,-0.2996282578,0.9600449444,0.11967712121592505,0.6362996121992892
9.115101549,0.3106604815,0.651183188,0.7656984329,1.052066333,0.12639892131484995,0.6375312038443006
9.125080703,0.2132506371,0.6088279486,0.5190658569,0.8279955731,0.13268584390177304,0.6388239272298759
9.135090472,0.1218628883,0.565546155,0.09798908234,0.5867664588,0.138563450650082,0.6401814986198144
9.145100088,-0.01624858379,0.479505837,0.1701717377,0.5090660905,0.14379373522005934,0.6415946421225147
9.155079472,-0.09046059847,0.4651985765,0.03866004944,0.4754865243,0.14850751927446548,0.6430531353536562
9.165089241,0.004483938217,0.6052957773,-0.07638072968,0.6101123664,0.15386521987313653,0.6445664759890385
9.175099088,0.1627431512,0.6810945868,-0.1989374161,0.7279775168,0.16030350523659365,0.6461388664243051
9.185078241,0.1515224576,0.1181606054,-0.3976125717,0.4416069984,0.16429145016109764,0.6477584577857759
9.195088011,-0.08922469616,-0.5345098376,-0.2193870544,0.5846302187,0.16220767013409837,0.6493925483354545
9.205097857,-0.4117438793,-0.9993870258,0.254983902,1.110551322,0.15453063444283918,0.6509777991610127
9.215077011,-0.7581961155,-1.071338773,0.1657371521,1.322912287,0.14419858862384025,0.6524683316216541
9.225086857,-1.102684259,-0.8533793688,-0.2188081741,1.411398576,0.13456552252742732,0.6538635245331297
9.235096626,-1.317412853,-0.6637997031,0.07444763184,1.477074515,0.12697221650675075,0.6551724907093869
9.24507578,-1.438788652,-0.419898957,0.09694290161,1.501940693,0.12156501859738507,0.6564125863813061
9.255085626,-1.394648075,0.04694501311,-0.1827545166,1.407354362,0.11969841282566947,0.6576200912782941
9.265095395,-1.24513495,0.4061808884,-0.4340801239,1.379771543,0.12196625562668535,0.658829595031629
9.275074549,-1.053900719,0.7555886507,-1.236380577,1.791719248,0.12776299419827922,0.6600756383527828
9.285084319,-0.5452570319,0.9566853642,-1.354144096,1.74535336,0.13633272873134195,0.6613974070750375
9.295094165,-0.6077184677,1.254830718,-0.4688539505,1.470967673,0.1474011964360156,0.662817473522988
9.30510378,-0.8213061094,1.322181225,-0.5002622604,1.634921786,0.16029864513593095,0.664357451997836
9.315083088,-1.152757764,1.465337753,-0.8281698227,2.040080991,0.17420740035458473,0.6660265214257419
9.325092934,-1.154098868,0.8628476858,-0.3061351776,1.473149373,0.18585978920550097,0.6678286299843167
9.33510278,-0.95408535,0.03539431095,0.3137140274,1.004961742,0.19035542123460056,0.6697115581439981
9.345081934,-0.8487735987,-0.2606692314,1.311295509,1.58362274,0.18923139467284641,0.671605535790153
9.355091703,-0.5925517082,-0.5699936152,1.487452507,1.699566183,0.18507402306717227,0.673478891173666
9.36510155,-0.5587310195,-0.7413847446,1.429087639,1.704148811,0.17851067469681717,0.6752986047717455
9.375080703,-0.25837937,-1.127689362,0.5499744415,1.280982077,0.16918478645776755,0.677033457873879
9.385090473,-0.1852365881,-0.5912261009,0.793302536,1.006573301,0.16058181224123136,0.6786839017772086
9.395100088,0.101156503,-0.1341016144,1.209091187,1.220703641,0.15695168665174022,0.6802730958139693
9.405079473,0.3041529655,0.06864672899,0.8718338013,0.9259133744,0.15662508690092156,0.6818377474891394
9.415089242,0.6250383258,0.1967584193,0.4049711227,0.770317074,0.15795340901381835,0.6834121765273764
9.425099088,0.7636618018,0.303945303,0.8503303528,1.182634265,0.160459392589743,0.6850058080816164
9.435078242,0.8345394731,0.1081015915,1.729011536,1.922920429,0.1625153322974616,0.6866173153404949
9.445088088,0.7178756595,-0.0906694904,1.432060242,1.604482145,0.16260257862119532,0.6882445054505637
9.455097857,0.7434175014,-0.5492617488,1.386767387,1.666577882,0.1593997966810575,0.6898560901476771
9.465077011,0.7476338744,-1.012494206,1.703107834,2.11770565,0.1516072950893745,0.6914078839796117
9.475086858,0.7856986523,-1.373745561,1.909345627,2.479939507,0.13966434760288265,0.6928656762690056
9.485096627,0.9207095504,-1.657104254,1.857029915,2.653725813,0.12449529434195884,0.6941877647665011
9.495075781,1.026421189,-1.822990298,1.586834908,2.625810181,0.10713109460747465,0.6953434824693963
9.505085627,1.226744413,-1.835796118,1.297423363,2.56092886,0.08881915032195033,0.6963241983570991
9.515095396,1.257745862,-1.700146198,1.11320591,2.389905677,0.07112216743170811,0.697124686179234
9.52507455,1.370152354,-1.310027719,0.5145969391,1.964255611,0.05610267288944527,0.6977594843163291
9.535084396,1.827380538,-1.178919196,-0.6923942566,2.282231344,0.04364568522878163,0.6982587171680873
9.545094165,6.956183434,1.389168978,-12.39343739,14.27990086,0.04469796110384179,0.6987008669142909
9.555103781,8.45304966,-1.484047771,-2.88035202,9.052782671,0.04422311096160506,0.6991458998071326
9.565083089,4.380461216,0.4422106147,2.889068604,5.265995451,0.039024704027324074,0.6995612776001834
9.575092935,1.541946769,-0.2367267609,6.068608284,6.265911418,0.04005313489333642,0.6999570560949877
9.58510255,1.267054081,-1.020247698,-0.4785480499,1.695682649,0.03376221969412556,0.7003264877352422
9.595081935,-3.564809084,-0.2817578912,-7.349167824,8.172974918,0.02726561217073663,0.7006309978501896
9.605091704,-2.728996992,-0.2026968151,2.131071568,3.468425667,0.02484097232022375,0.7008917852872563
9.61510155,-1.727130413,0.2718321085,2.363176823,2.939638899,0.02518698914027319,0.701142171382213
9.625080704,-0.864097774,0.7714440227,2.344229221,2.614804292,0.0303924957291576,0.7014194895015894
9.635090473,0.1516917944,1.055182695,0.7026433945,1.27676492,0.039534551475860054,0.7017694662962766
9.645100319,2.651770592,0.283464551,-2.958132744,3.982811664,0.0462343778662527,0.7021987331834263
9.655079473,2.69849658,1.162137508,2.294423103,3.727844519,0.053447320650991614,0.7026961026936689
9.665089243,1.716414452,1.020837545,3.196547985,3.769098949,0.06437285974912543,0.7032857791472508
9.675099089,1.558069706,0.9335436225,-1.204044342,2.179175918,0.07415438700511215,0.7039790973506577
9.685078243,0.3559741378,1.052465439,-1.646554947,1.986339417,0.08406373214016397,0.7047685388389282
9.695088012,-0.903144598,1.034174681,-0.04437255859,1.373738097,0.09450712493382993,0.7056622653536495
9.705097858,-0.7791942954,0.7250173688,0.2933645248,1.104018424,0.10331174568529186,0.7066523335690452
9.715077012,-0.4084466696,0.5403047204,1.23435688,1.407975419,0.10962516767915602,0.7077147986944194
9.725086781,0.24486655,0.4136435986,1.112409592,1.211823318,0.11439956883472009,0.7088360166258143
9.735096627,0.4968079925,0.6560531855,-1.813276291,1.991279707,0.11975331887248869,0.7100079337990166
9.745075781,1.872773409,0.1308650374,-0.693113327,2.001202634,0.12367970793835134,0.7112225616306324
9.755085551,1.006086111,0.4210175276,1.629052162,1.960427496,0.12644181670968135,0.7124743910975204
9.765095397,0.7952618003,0.4960474372,0.3506526947,1.000730585,0.13103165624450266,0.7137630260041986
9.775074551,0.5405634046,0.3511959612,-1.064299583,1.244299402,0.13525904241856107,0.7150917039495618
9.785084397,-0.1843754202,0.3192327023,-0.1353321075,0.392706752,0.13861448625637177,0.7164624198723183
9.795094166,-0.1656082869,0.1142349392,-0.04431533813,0.2060086775,0.14078394173656664,0.7178607767339045
9.805104012,-0.04127890244,0.04963302612,-0.06575298309,0.09214575332,0.14160408828515983,0.7192741070802847
9.815083166,0.2539781034,0.02815711498,0.1546077728,0.2986658058,0.14199222818401921,0.7206891327382243
9.825092935,0.6182626486,0.0284948796,-0.6761293411,0.9166305399,0.14227576487358673,0.7221118612105244
9.835102551,1.27252233,-0.0969208926,-0.2021150589,1.292113477,0.14193330581631625,0.7235342730411858
9.845081935,1.3853122,-0.09889638424,0.5376348495,1.489268819,0.14095623791660597,0.7249458047344335
9.855091705,1.50330925,-0.1883093566,0.243016243,1.534423673,0.13951880621236198,0.7263495500756689
9.865101551,1.464872241,-0.1598513871,0.04417610168,1.474230198,0.13777628849852058,0.7277373906729747
9.875080705,1.267702341,-0.1451068968,0.5181512833,1.377173188,0.1362546756592137,0.7291046892690239
9.885090474,1.303319335,-0.0402251333,0.3792171478,1.357963547,0.13532711025441269,0.7304639247398254
9.89510032,1.403178692,-0.1479338408,-0.1452350616,1.418410408,0.13438538907728328,0.731813815031118
9.905079474,1.506205797,-0.2037418336,-0.2292451859,1.537114177,0.13263067622083727,0.7331461122491602
9.915089243,1.250762463,-0.2908140421,-0.04025173187,1.284756688,0.13015548118416245,0.7344613266151709
9.925099089,1.328454733,-0.3751091361,0.02418994904,1.380610008,0.12682258695335646,0.7357474820588878
9.935078243,0.8320286274,0.03295201063,-0.3199930191,0.8920498888,0.12511536762972528,0.7370045458825026
9.945088013,0.2354537845,0.2853175998,-0.5828943253,0.6903697645,0.12670827042892222,0.7382648942312677
9.955097859,0.2077569962,0.2958167493,-0.7672595978,0.8481496383,0.1296168030988231,0.7395477814872435
9.965077013,0.05057936907,0.3551408052,-0.5613479614,0.6661792536,0.13286480594073247,0.7408574536866303
9.975086782,-0.1542343497,0.4439509511,-0.4674892426,0.662892807,0.13686416788591604,0.7422074160469361
9.985096628,-0.2756071091,0.5729286075,-0.3289451599,0.7158291598,0.14195357177698348,0.7436028773649831
9.995075782,-0.3537758589,0.5458949208,0.1935482025,0.6786895679,0.1475360279208479,0.7450473080133746
10.00508555,-0.4672133327,0.4425536692,0.4466638565,0.7833585699,0.15248309845376135,0.7465488689386608
10.0150954,-0.5361202955,0.3459901512,0.3661193848,0.7356477145,0.1564297011340766,0.7480949543321379
10.02507455,-0.6623792648,0.2164490223,0.4979953766,0.8565021102,0.15923603357319271,0.7496699921903899
10.03508432,-0.8025814891,0.08730608225,0.7025585175,1.070209264,0.16075629293962843,0.751271516985469
10.04509417,-0.8384352922,-0.02360613644,0.641957283,1.056238677,0.16107510639091158,0.7528822590017636
10.05510401,-0.9281333089,-0.1258194,0.8224191666,1.246449055,0.16032724353507227,0.7544908520509552
10.06508317,-0.9398465157,-0.1820554137,1.033977509,1.409100825,0.15879107752213126,0.7560831184433356
10.07509294,-0.9872143269,-0.2266252935,0.9486026764,1.38773131,0.1567456775808766,0.7576623436158993
10.08510278,-1.033417583,-0.3043486476,0.7724428177,1.325612276,0.1540881954835863,0.7592180422838772
10.09508194,-1.102414727,-0.33796525,0.8693647385,1.444068485,0.1508833189063992,0.7607397220526473
10.10509171,-1.165400386,-0.3740567267,0.8802013397,1.507591089,0.14731973079554306,0.7622321940230548
10.11510155,-1.274424791,-0.3979244232,0.824136734,1.568981756,0.1434560268987854,0.7636875034282543
10.1250807,-1.343973279,-0.3778439164,0.7921066284,1.605136477,0.13958527258572592,0.7650997592201296
10.13509047,-1.33445251,-0.3951759338,0.6858644485,1.551559719,0.13571639713275774,0.7664776124173787
10.14510009,-1.276655555,-0.4639084041,0.5148954391,1.452645079,0.13141684324759245,0.7678145635301666
10.15507948,-0.6961014867,-1.027830601,-0.9652261734,1.572467675,0.12397352059254015,0.7690888835516679
10.16508924,-0.5547456741,0.6805423498,-3.307068825,3.421634823,0.12223538456987414,0.7703211295769373
10.17509909,-0.005527794361,0.02437202632,-2.280038834,2.28017579,0.12576342815377634,0.7715623450347082
10.18507824,-0.9798025489,0.6538519263,-0.1062088013,1.182715387,0.1291474774321701,0.7728342421164471
10.19508801,-1.772887468,0.08876322955,-2.711931229,3.241231228,0.13286418088645638,0.7741455803349911
10.20509786,-2.081044912,-0.1299021393,-0.890039444,2.267111092,0.13265828372857583,0.7754745003562047
10.21507701,-1.462427855,-0.494723022,1.440179825,2.111294396,0.12954166963938255,0.7767827666885305
10.22508686,-0.5104888082,-0.7125403285,1.692791939,1.906267843,0.12349940711488168,0.7780492182996048
10.23509663,0.0650062561,-0.5501307845,1.953680038,2.030698251,0.11717988340149472,0.7792537904705209
10.24507578,0.773685813,0.4174383581,-2.195893288,2.365331235,0.11651780458803986,0.7804198426120714
10.25508563,0.8071807027,0.1650332659,0.03284645081,0.8245335378,0.1194330313807879,0.7816007588497826
10.2650954,0.6974185109,-0.2031339407,2.87382555,2.964208034,0.1192423418849915,0.78279530164531
10.27507455,0.2170572877,-0.1410153061,-0.1729717255,0.3113172024,0.11752518340688947,0.7839766709703182
10.28508432,-0.1450837255,-0.3341071606,-0.9822320938,1.047595708,0.11514725010013967,0.785141169742691
10.29509417,-0.3661470413,-0.2114413381,0.8245620728,0.9266464844,0.11241682078028324,0.7862801108501424
10.30510378,-0.01100468636,-0.2301412225,0.16401577,0.282820187,0.11020678617307976,0.7873942985913405
10.31508309,0.5979726911,-0.2189874798,0.08178043365,0.6420396365,0.10796578889800498,0.7884829044714068
10.32509294,1.39428699,-0.3749186099,-0.2308855057,1.462158778,0.10499333346201338,0.7895487489068844
10.33510278,1.210938931,-0.2351269722,0.624464035,1.382610978,0.10194010412724933,0.7905844342073437
10.34508194,0.9143929482,-0.2832176089,1.099740028,1.457996848,0.0993537823722843,0.7915888061575441
10.35509171,0.4110128284,-0.4335370958,0.130364418,0.6114579626,0.09576650750205187,0.7925653607695319
10.36510155,-0.1600423157,-0.1971580386,0.328004837,0.4148156315,0.0926099288099905,0.7935081697631587
10.37508071,-0.8803796172,-0.04531736672,0.4831352234,1.005256971,0.09140007837711389,0.7944263024148194
10.38509048,-1.176601171,0.0889204666,0.4896059036,1.277501901,0.0916183068776568,0.7953422883859051
10.39512331,-0.8741673231,0.06321686506,0.2132492065,0.9020200136,0.09238149087025602,0.7962653077313248
10.40510269,-0.762445569,0.1733574569,0.005975723267,0.7819282338,0.09356192339879649,0.7971931077260688
10.41511246,-0.4896673262,0.3091365993,0.001752853394,0.5790877307,0.095976750663261,0.7981417269928018
10.42512231,0.9177908897,-0.04164108634,-0.05767250061,0.9205434344,0.0973155456434625,0.7991091404388949
10.43510146,0.4609415829,0.5366689563,-1.184687614,1.379842547,0.09978552432771803,0.8000925910100963
10.44511123,-0.04020494223,0.3217001557,2.29877758,2.321526608,0.10408156302083012,0.8011129223375608
10.45512108,1.771294713,0.5892342925,-5.64648819,5.947059012,0.10864072161398725,0.8021775814179867
10.46510023,-0.8656343222,0.5317155123,1.428473473,1.752877813,0.11423378473627192,0.8032896304830092
10.47511008,-0.2459494323,0.1095555425,2.349505901,2.364882982,0.1174432982702172,0.8044491569076756
10.48511985,-0.6126233339,0.4205675125,1.200894356,1.412208071,0.12009650319634085,0.8056380162969385
10.495099,-0.5057755709,0.4753100872,0.5544490814,0.888336868,0.12456655167086375,0.8068587809589275
10.50510885,-0.3815740347,1.252876043,-2.859693527,3.145336897,0.1332159936385545,0.8081489632645101
10.51511862,0.1169824004,0.5667677522,-0.1719083786,0.6037077584,0.1423231015744956,0.8095280047490557
10.52509777,0.6254888773,-0.02944477089,1.251594543,1.399497135,0.1450041148889653,0.8109616454451414
10.53510762,0.76891011,-0.1975363642,0.1782932281,0.8136533953,0.14386809133142506,0.8124074291718589
10.54511739,0.6423590183,-0.3181553781,-0.2407627106,0.7561842605,0.14128711346576395,0.8138345981790203
10.555127,-0.6576167345,-0.1015172005,-1.005486488,1.205723264,0.13918673404602358,0.8152383150934166
10.56510631,-0.850435853,-0.1975821406,-0.003161430359,0.8730921125,0.13769433152320748,0.8166198560866392
10.57511616,-0.7278581858,-0.2937202454,0.780667305,1.107018772,0.13523539992895614,0.8179858489228277
10.58512577,-0.3091500103,-0.4172461927,0.3761768341,0.6412309449,0.13167715154472137,0.8193216941950058
10.59510516,-0.3488385677,-0.2828246951,0.6154870987,0.7619071618,0.1281840113362202,0.820618322140127
10.60511492,0.09300678968,0.05141087621,-1.127812386,1.132808068,0.12702581294233392,0.8218956166854623
10.61512477,0.290482074,-0.01095733792,-0.4866571426,0.5668642457,0.12722827986746,0.8231681393509183
10.62510392,0.06890040636,-0.05425065756,0.8176622391,0.8223514681,0.12690291968341283,0.8244361460309174
10.63511369,-0.1324414313,-0.3012015522,-0.3244762421,0.4621124748,0.12512392225056818,0.8256975113917101
10.64512354,-0.296430409,-0.5222058296,-0.7045373917,0.9257120784,0.12100283006021305,0.826929357327519
10.65510269,-0.5226242542,-0.4978450239,0.2680778503,0.7699685141,0.11591320982286105,0.8281114676772185
10.66511246,-0.3189787567,-0.5805917978,0.5555830002,0.8645847286,0.11051575755048709,0.8292447186195909
10.67512231,-0.1576604694,-0.5802204609,0.2826004028,0.6643610423,0.10470597925661229,0.8303218872706803
10.68510146,-0.1442276835,-0.4965929389,-0.08385181427,0.5238676344,0.09933313803730548,0.831339955749352
10.69511123,0.247374475,-0.5863785744,-0.1295547485,0.6494754778,0.09391299015496306,0.8323071303976496
10.70512108,0.1699284017,-0.4255630374,0.1287755966,0.4759860447,0.08884829828352524,0.8332218369391875
10.71510023,0.07044395804,-0.4695812166,0.229221344,0.5272677638,0.08438190889237342,0.8340861820501572
10.72511008,-0.1367220581,-0.3755967617,-0.1656961441,0.4326904907,0.08015185649932978,0.8349096612059104
10.73511985,-0.1859244406,-0.1754907668,0.07142162323,0.265454243,0.07739372679425308,0.8356981587325527
10.745099,-0.1503973007,-0.1069246531,0.1332168579,0.2275938504,0.0759845938755056,0.8364634513669085
10.75510877,-0.0797124207,-0.04545429349,0.07787322998,0.1203511643,0.07522195477140152,0.8372202227541331
10.76511862,0.00991050899,-0.0228151381,-0.05166149139,0.05733810607,0.0748802713865009,0.8379714731383865
10.77509777,0.06804464757,-0.01012197137,0.01752185822,0.07098974492,0.07471592920851713,0.8387178946009703
10.78510762,0.02830792964,0.00600579381,0.09159755707,0.09605998595,0.07469532804854265,0.8394656867376976
10.79511739,-0.01652678847,0.04099835455,0.03889751434,0.05888137596,0.07493057840560738,0.8402145471925214
10.80512723,-0.05019019544,0.03447847068,0.01499271393,0.06271046268,0.07530833387773753,0.8409664809293866
10.81510639,-0.05749206245,0.03219778836,0.07011127472,0.09621655607,0.07564102040631834,0.8417196548085353
10.82511616,-0.01387989521,0.04890286922,0.04618358612,0.0686808979,0.07604691987093062,0.8424788355055097
10.83512577,0.0145701319,0.04668258131,0.02701854706,0.05587086921,0.07652530641167038,0.8432424297464699
10.84510516,0.006982311606,0.03721280396,0.06291866302,0.07343230632,0.07694391879607516,0.8440081943721428
10.85511492,-0.03344856203,0.03472773731,0.05334949493,0.07190960054,0.0773039725722666,0.8447801865586945
10.86512477,-0.004270851612,0.01787692308,0.03660583496,0.04096109991,0.077567254952169,0.8455553054371122
10.87510393,-0.01585556567,0.01084721088,0.04139614105,0.0456366239,0.07771057631649314,0.8463300765984537
10.88511369,-0.008129611611,0.05143406987,0.05817222595,0.07807408021,0.07802228665289322,0.847109500889672
10.89512354,0.02334105968,0.1157398224,0.03903675079,0.1243558582,0.0788589794456626,0.8478946798604002
10.90510269,-0.05241534114,0.1889455169,0.02950668335,0.1982887307,0.08037922979750033,0.8486892108482846
10.91511246,-0.01789915562,0.1111616492,0.06308460236,0.1290618421,0.08188123165150671,0.8495013057978839
10.92512231,-0.02879753709,0.1045225263,-0.1211967468,0.162612755,0.08296071477357117,0.8503263273765955
10.93510146,0.04823181033,0.03436432779,0.1565589905,0.167385579,0.08365370114856725,0.8511576625009202
10.94511123,0.08581417799,0.149472326,0.02971076965,0.1748964815,0.084573782459571,0.8519996217102183
10.95512108,0.009547352791,0.2021408975,-0.03246593475,0.2049539736,0.08633358027219665,0.8528550002426385
10.96510023,0.009984776378,0.2364265174,0.1448173523,0.2774333423,0.0885218452813962,0.853727454502595
10.97511,-0.01616597176,0.2050116807,0.07073307037,0.2174725158,0.09073119269749429,0.8546245953435802
10.98511985,-0.03929385543,0.1546816975,-0.07277774811,0.1754053455,0.09253143107838183,0.8555418110308816
10.995099,-0.007120266557,0.1974950433,0.116517067,0.2294149455,0.0942886433398589,0.8564739638036969
11.00510877,-0.00675560534,0.332978338,0.01856040955,0.333563638,0.09694360160882652,0.8574310591979569
11.01511862,-0.06055212021,0.4336348772,-0.07450962067,0.4441367465,0.10078044325491184,0.8584206532131967
11.02509777,-0.02583168447,0.4091107249,0.09343624115,0.420439285,0.10498538564250973,0.8594473372489175
11.03510754,-0.01579616964,0.4219793379,0.06029415131,0.4265576928,0.10914489583146647,0.8605190346827124
11.04511739,-0.03413166106,0.4023098946,-0.01834201813,0.4041715616,0.1132704016184363,0.8616322065653018
11.05512723,-0.03751146793,0.3699139357,0.04905986786,0.3750337327,0.11713532011118152,0.8627853687701008
11.06510639,-0.01023621857,0.35646981,0.06852054596,0.3631398778,0.12075966992105144,0.8639723648544659
11.07511616,0.007129341364,0.3338569105,0.01131248474,0.3341245823,0.12421467576958106,0.8651984332825978
11.085126,-0.004212960601,0.3028844595,0.04503631592,0.3062433911,0.12740151538712158,0.8664577521900418
11.09510516,-0.02737395465,0.2991481423,0.03801727295,0.3027940843,0.1304054052164104,0.8677441004449467
11.10511493,1.255845904,1.717637062,0.01144981384,2.127805703,0.1404991832336333,0.8690999467561115
11.11512477,-1.617375374,3.841235638,-1.286211014,4.361803881,0.16832089638731837,0.870645566549008
11.12510393,-0.8074076772,5.386199951,-0.3839406967,5.459896293,0.21436192445348246,0.8725549930982189
11.1351137,1.000803709,2.956248999,1.217411995,3.350090771,0.25611492206660286,0.8749096756102146
11.14512331,-2.07600522,-0.4272837639,0.8341207504,2.277745929,0.2687718999200586,0.8775366318013278
11.1551027,0.1854234636,-4.25663805,-0.2621097565,4.268729422,0.2454005586648513,0.8801021955470666
11.16511246,-0.142813921,-5.317800045,0.8756961823,5.391311245,0.19748164493195206,0.8823187678302039
11.17512231,-0.3732635081,-2.57822156,-1.17807579,2.859093322,0.15796264900054266,0.8840977398630142
11.18510146,-0.7780109644,-0.2678441703,2.545220852,2.67491883,0.14376199058428177,0.8856032175815706
11.19511123,-0.3630546927,-0.3408022523,-0.5455780029,0.7386543457,0.1407157852335074,0.8870269961345943
11.20512108,-0.3973450363,-1.280502319,-1.97728157,2.388977119,0.1326012774519942,0.8883949275345555
